time,altitude,accel_x,accel_y,accel_z,gyro_x,gyro_y,gyro_z
0.0,-0.12497989799003863,0.0785607973296695,-0.8111733057152253,9.76506785752163,0.00013893987205800099,0.0007178441579834141,-0.0003640264876414875
0.005,-0.08908954644673406,-0.06077998773479451,-0.85360153033775,9.844888596008268,0.0003718678097016505,-0.00040121501233038125,-0.0011478069046978166
0.01,-0.41586584799157805,0.08203190780032527,-0.8512926517335029,9.824654050995152,-0.00011178042632100629,0.0011951308823914323,0.0013750500059253987
0.015,0.6404323995338554,-0.05148236787289734,-0.916395070973582,13.124779310435706,-0.0001293384968924229,7.912817679746333e-05,-0.0017358319723645868
0.02,0.47843757892230976,-0.07341725078098214,-0.9123547294939013,17.40080519727601,-0.001359853444861842,0.0007148562988078647,0.00022384086829622623
0.025,0.2097131846335611,0.04389280008296443,-0.897135826268369,21.915576324396916,-0.0011226884718520966,-0.00041861952391482115,-7.071532083774141e-05
0.03,0.5248202534152551,-0.055814893546176705,-0.909565171027205,26.306639047904483,-0.0001301020567455673,-0.0014178057559981758,-0.00019178800800293737
0.035,-0.2680967804753149,0.10097455593370981,-0.8706085494197793,30.6762926534752,-0.00011775179286258413,-0.0011969656068879083,0.0016575117733965948
0.04,0.42992526697895894,0.040484337307063384,-0.9253470576686652,35.018246517952434,-0.00025895952266532715,0.0006808836675382007,-0.0006439731963373087
0.045,-0.1751251676744139,0.02235811949674822,-0.8092772998351402,39.33838878191018,8.989209330701283e-07,0.00028057813133955275,0.0015839650625991736
0.05,0.3026315825421302,-0.026237917966965354,-0.8447266626671349,43.65464799999968,-0.0012749115217035186,0.0006537956042943735,0.0006161743038990223
0.055,-0.38529630684655947,-0.018769158381952575,-0.9563572279419408,48.55214457573959,0.00019112675725603683,-0.00012308347270477004,-0.0015929801229909609
0.06,0.030301299917376394,-0.015014357318797487,-0.8420083249916545,53.95858492212052,-7.167275245577868e-05,-0.0015490374494012836,-0.0006543555072696445
0.065,-0.31002980963641147,-0.056354904336429146,-0.8503970312002478,59.74070912276068,0.0017335775047581299,8.050219440817387e-06,0.0008470849525103727
0.07,0.5668191702018129,-0.024854308406027016,-0.8635986200019605,65.77391175076602,0.000609788923986756,-0.0001385953320731993,0.00034823270022120125
0.075,0.674432618424706,-0.06625986253692237,-0.846147336901514,71.53766938081387,0.0009510542127938717,-0.0010438132367178647,-0.0009411899128994445
0.08,-0.009296699888073141,0.055686831997757195,-0.8984669504690492,76.83037833228643,0.00048641735339038895,-0.0007384383923113852,0.0002276353170408475
0.085,0.11879688780042945,-0.03889522202537443,-0.8164008062483408,81.27618656049944,-0.00017932262577515187,-0.0001398867903005829,-0.00048396203695749674
0.09,0.0932134892456599,-0.04331674335118718,-0.8830947565791766,84.94186608917012,-0.0010619594473419067,0.000586191170782759,0.0005692848655926683
0.095,-0.9430139269140039,0.014634963674715968,-0.8547611552959967,87.13399362780096,0.0008269627002789155,-0.001687033592818399,-6.249858081589834e-05
0.1,-0.6322505214368839,0.03323614603798355,-0.9342593345607576,87.73157508919077,-0.0013333908855487164,-0.0002666425499950381,0.00012628460315776513
0.105,-0.3348167637242817,-0.08777994149760504,-0.822395260703401,87.30950577059878,0.0013035761743636423,-0.0004907748047281235,0.00060621723796851
0.11,-0.38643607287697856,0.09184922848265298,-0.8170866653409431,86.84007328321131,-0.0016411508972851323,-0.0002233929087235432,0.0005034488250349548
0.115,-0.16827139385785006,0.08275396576141227,-0.8713768728603913,86.32073363183717,7.951880707779451e-05,-0.0005074777640292512,-0.002672932296635156
0.12,-0.4751521916698874,0.053555731570608583,-0.7734566408069617,85.88849806618953,-0.0019094750063930006,-0.0010951756151186588,-0.0012361064576511176
0.125,0.5698346900650637,-0.05026714934695226,-0.7658633675741245,85.43549068457112,0.00021448519813177573,-0.00020782007745418095,0.0006294781687010636
0.13,-0.7553412716546528,0.012858499971690373,-0.8381705549012439,84.85351134255707,0.0011194212692418467,0.0002466412276781523,4.7853186969316695e-05
0.135,0.295633642646474,0.01871662391011928,-0.9382677415095939,84.4252386709938,-0.0010070053392524424,5.893227066304792e-05,0.00021434207951708862
0.14,0.8012418915055954,0.023564535553475357,-0.7850190806203919,84.01304765971618,0.0008649861464689435,0.000232651510266589,-0.0006510237421602765
0.145,0.04518147661940802,-0.022030421065238087,-0.8895118732771803,83.5069841736454,0.00045861847638058124,-0.0016905454965220532,0.002007736939203704
0.15,0.0394497483221401,-0.0030033490131697667,-0.9882648082886691,82.91282185947396,0.0016227690954595019,0.0004088134322614097,0.0007230767285763459
0.155,-0.28936270781038737,-0.07325602066266011,-0.7868379973710432,82.43390837309363,0.00029558656014547387,0.0015811782036621036,-0.0013135960870176249
0.16,0.4791690109549708,-0.032972523229351756,-0.826839800049546,81.96943022448119,0.00029747257322034984,0.00035419381100518346,0.00030227395753860747
0.165,-0.1474772871037222,0.0018929492396645793,-0.8681463563233137,81.4479180270554,-0.0012883230496507552,-0.00028488399800907565,-0.0003177016609228627
0.17,0.8299828152701714,-0.07473072985686663,-0.8386681616307798,81.01953373041725,-0.0008308567859118317,-0.00019480722983844737,-0.0010805578159018767
0.17500000000000002,1.0743076970226455,0.0529909189314627,-0.8568809981782453,80.57066015222193,-0.000656193510083999,0.00040509742058176965,0.0005804664951707469
0.18,0.716745844345892,0.004189191577180104,-0.8109273877972618,80.08373312306273,0.00033257648974692293,0.0007066915683902951,0.00023781581535824246
0.185,0.7801613399723556,-0.13779211921370507,-0.9380669955042169,79.56488608356975,3.1612320450403886e-06,0.0006771453006905612,0.0012086566363351784
0.19,0.7150476072391887,0.04020458454183469,-0.7740763949764953,79.1081733063621,-0.0013588962836438077,-0.00047387741474322505,0.0010901702567346295
0.195,0.7042124134616464,-0.023918569789738522,-0.8798006244701401,78.79785939790018,-0.0007239447538033271,-0.0008932015733481546,0.001724220487892865
0.2,1.2946524928124195,0.053598474935374334,-0.8418629104345793,78.38750418753834,0.00025401125846265677,-0.0005332675475624863,0.0003992271704522002
0.20500000000000002,0.2586844916645584,0.02466090551451954,-0.8568184184093541,78.14232727848734,-0.0009823868009951066,0.0006108727704243727,-0.0004592457899636077
0.21,0.6979979241331599,-0.037439120041297756,-0.7920652593162635,77.68732186782901,-0.0007938147836991437,0.00023002754335010194,-0.0005740819635712244
0.215,0.4661090195635703,-0.03281005173192526,-0.7595388860787381,77.54349409170021,-0.0011500651254024476,-0.0009588126429121071,0.001979434429968744
0.22,0.7172159013271635,0.05817409220543146,-0.8924087944151098,77.28067855481126,-0.000285778812726312,-0.0006992150697433788,0.0011265414275449168
0.225,1.0644245470365576,-0.03987103968272724,-0.8582693795564544,77.1840182552432,0.002028939019748023,-0.0002121176498485327,-0.00022868268037229807
0.23,1.506258247378487,-0.04209373213579517,-0.890191243278861,77.05696965998595,-0.002136544785497226,0.0011822606416844463,-0.0013679602181993899
0.23500000000000001,1.9675285595917136,-0.010451922451945836,-0.9306909743271016,76.85459025258882,0.0005786143746835427,0.0008239828710840226,0.0007175328237136693
0.24,0.14577802835194165,-0.013059821569809628,-0.9063269924198116,76.48789081840462,0.00011603774005930288,0.0006904631444809377,-0.00029084596001430874
0.245,-0.008922102758673445,0.0238393928780353,-0.8037720633757162,76.40887905605977,-0.00020104885628638303,0.00021683614069691585,-0.00015471645968908755
0.25,2.108315294864854,0.030946996674932326,-0.9269909245410635,76.16006862657619,-0.0013773890797828365,0.00035173725313371714,-0.001549082089807297
0.255,1.2695985440436854,-0.03112043666168394,-0.8052393005760553,76.11980718381808,-0.0008006717721173253,0.0007538843729040286,-3.0034836637454097e-05
0.26,2.5224576640420935,-0.043622929207244275,-0.8688117143281034,75.8021176816287,0.0001233609111179544,-0.00026217072273934606,-0.0008646446641687086
0.265,1.5681490790714376,0.02261016928450307,-0.8260411301509029,75.56855183020592,-0.001260113291322647,0.0027652910555267993,-0.000882923163040999
0.27,1.2987503569172525,0.06689253268589376,-0.8066246861529153,75.43072651822987,0.0005815022076077052,0.0005610914195879461,-0.0019399502809067184
0.275,1.326599990140004,0.08110971157023661,-0.8386054159098509,75.10704581312811,0.0011144484965469748,-0.0023925294227368824,0.00037464992332552515
0.28,2.715632930969896,0.03068978775198447,-0.8607821090795568,75.05129279573892,-0.0017507286564009948,0.0007264857575744374,0.0022211394290356456
0.28500000000000003,1.7118674048648381,-0.04312390023678378,-0.9001404070873303,74.83292745388236,0.0001557337670549505,0.001347871410157778,3.750582641323603e-05
0.29,2.4037134057501963,-0.02196721006976494,-0.863699903816696,74.65220177991017,0.00018292206723982284,0.00031291732453351834,0.001010528569135437
0.295,2.0375552474808365,0.0790494009766068,-0.8575311209260364,74.54763567038475,-0.0008845560637229734,0.00015647925185648335,0.000408087301382582
0.3,2.019354551531784,0.0061482151087999684,-0.8540621319653442,74.37218474405377,-0.0007640702257564484,-0.0003751766118945405,8.814026688848797e-05
0.305,2.0264480052200513,0.023029200983161326,-0.7990079962599901,74.20102760884821,-0.00031338160388131046,-0.0008628858285272504,0.0014132245956010043
0.31,2.262063899632966,-0.0009982616652616692,-0.883337749847794,74.19478518537066,0.0001653865115863418,-0.0016558806149865627,0.0009436736533653887
0.315,3.3537583495434586,-0.08148475764695313,-0.8901792493984625,74.18181290573509,0.0006180308790127238,-7.980420623840646e-05,-0.001120289326560895
0.32,2.587332059551496,-0.05531895655586738,-0.8156773729468975,74.27370928530473,0.0002703634543376421,-0.0007787103148563367,-0.0008243433325426965
0.325,3.045581160535158,-0.02182958278388213,-0.8058660350021938,74.15143261176283,0.0012528574532874996,-0.0005991833379803238,-0.00035779775329919784
0.33,2.7853031120976195,-0.05775885601488098,-0.8282829685911012,74.19163084855799,0.0009439560909876593,-0.00014919398568422008,-0.0005384787200564195
0.335,3.0376922418710923,0.10261598494027215,-0.8706466002950701,74.12263291524845,0.0004653189811251091,0.0007668542694891119,0.000905326205146013
0.34,3.9066802146403097,0.022479389859849524,-0.8808676386031135,74.10400176768941,0.0008719778395859346,-0.0011109114502354355,-0.0005113276516985712
0.34500000000000003,3.0811089886379692,0.038562058702623844,-0.8030306965981179,74.1587953925302,-0.001161917463721759,0.00016505876317227363,0.0003340420881064347
0.35000000000000003,3.327296915000076,-0.06419783904363345,-0.7864685345385009,74.15897253336334,-0.0008327697612060437,-0.0006526352077213379,0.00048258178075900583
0.355,2.561804980185068,0.0017624018454557016,-0.8134986866354721,74.1126977524623,0.00034067943017083264,-0.0011054435904768048,6.376984463957244e-05
0.36,2.644690488036915,-0.033820514931462764,-0.8275059905058242,74.12234603826582,0.00048740365134828707,0.0009991874022800818,9.597342680018869e-06
0.365,3.310301931201609,0.09933269240629342,-0.8045940665213621,74.10719726410673,0.0005698167409417792,0.0012652798055846637,0.0013093376939015734
0.37,4.380520493999544,0.057074686426224576,-0.7608237236437001,74.09225579152047,-0.0008158132079638288,8.100747721833412e-05,0.0004111517804600222
0.375,3.2944726117217753,0.02556442698690463,-0.7391144484753808,74.03566166928226,-0.00025020445824816155,-0.000985853486722839,-0.000771635776911595
0.38,3.9670713954225048,0.03972366805121777,-0.8135105780243105,74.07706926690351,0.0011184000389899734,-0.0015565707955669352,0.0010080995845472408
0.385,3.5629897064882465,-0.037951485368505844,-0.8243157014440325,74.06895092231805,0.00031810226162589343,-0.00023468651194347205,0.0008657223292761555
0.39,4.637745406933166,0.0004109725208534117,-0.8551600429858336,74.0708512633287,0.0004078876341943299,0.00036236907351441523,0.00046738274262870177
0.395,4.660734649330955,0.005720318387372505,-0.8539599945369211,74.04359947631163,-0.0005052186084242944,0.0011028055507796206,0.0009086435239455145
0.4,3.391310067195896,0.001298250579353729,-0.8536054779172344,74.14837919184122,-0.000508829673448212,0.000357845364167461,-0.0009366597508512207
0.405,3.4720679488635207,0.039918328684307974,-0.8921069893307111,74.10215255603389,0.0013173958795239993,0.001565185433252778,1.4089631672006384e-05
0.41000000000000003,4.641166299312423,0.013391836025030418,-0.8861585411899946,74.39956154435535,0.0005430503817076942,0.001707702787444658,0.0008953005437290707
0.41500000000000004,5.2890478715558045,0.00417439970117716,-0.7845464713807715,74.39539205642092,0.00011761306693734788,0.00027741287738020906,0.0018463410972023597
0.42,4.505455846166378,-0.020374556473881367,-0.846473065005028,74.6285441844532,0.0008567668415030278,0.0005464412954230823,-0.0015743232105036194
0.425,4.7678935225360615,0.04039288137177102,-0.9159293441346698,74.68175146217133,0.0014505649304322233,-1.0635401940284559e-05,0.001368389332098186
0.43,5.253298925009489,0.03703224271870056,-0.5974347130038621,74.75554521716653,-0.001577196605289547,0.0011973001097058818,-0.0012047293005893616
0.435,4.792896691842753,-0.06803968038211794,0.035413194358372924,74.83519116021961,-0.0013556245615389093,0.0005392249088557256,0.0008937761366472841
0.44,4.373050679181728,-0.00018573203635853302,0.15229336168909172,75.0733865801627,-0.00038463818483541154,-0.001485612768280688,7.48581327349212e-05
0.445,5.307128170652585,0.006471571900066406,-0.05306681211285279,75.0700348552396,0.00015069530151239007,0.0001819872532912516,0.0007310172513103397
0.45,6.281338923163593,0.02245971552311246,-0.08118809826177997,75.19524733532357,0.0006902597882478686,0.000721542054529178,-0.0022427504060462513
0.455,5.51243271793118,0.011580146167138188,0.027222388141571012,75.35024313642522,-0.00025359382970156893,-0.00038959662832825236,-0.0021320399525781995
0.46,6.480598334527404,-0.06853220840109901,0.018103423651972508,75.55183312030967,0.0007921951870526311,0.0001385190826357805,0.0005070610268833543
0.465,6.287564106678776,0.008999363839526568,-0.09828904564067102,75.58402418159905,-0.0016581004257838095,0.00020363952072214152,-0.0002370074104224285
0.47000000000000003,6.427670767560154,0.0507793896824057,-0.12763163920877732,75.73640540093258,0.0003056027828675711,-5.3120316575002366e-06,3.4620570295891244e-05
0.47500000000000003,5.742746100018934,-0.028749110358509116,0.04969177322366573,75.87237695099152,-0.0016324165226469084,0.0005468897704665492,-0.0012757542714618725
0.48,6.21001893763484,-0.031371553332219415,0.015214978415796644,75.99430396560716,-0.0013128630375019087,-0.0019408848208285964,-0.0029543020233991483
0.485,5.945088425495335,0.0017117934243321437,0.06276713542622699,76.1041510921851,-0.00029691947116766183,-0.0011278581650047818,-0.001851109101497654
0.49,7.052915295638751,-0.0023480718248772973,0.013267131274908972,76.40149948932417,-0.0013105699227530078,-0.0002914625071722562,0.001320743315308301
0.495,6.522495301807812,0.04313984506012083,-0.03125151717367492,76.3626926421114,0.0005230567145424502,-0.0009732578391474432,0.001006181370133395
0.5,7.042189784491142,0.01363479998075115,-0.0580899975592771,76.47970693922011,-0.0005638625603184562,0.001343958008123071,1.8379347665180537e-05
0.505,6.766159106367926,-0.04216338613869485,0.0025672374402034735,76.55322052386164,-0.0004930872791489092,-0.0003719127025620366,2.5333791515853944e-05
0.51,6.2951988384266295,-0.03433605112973679,-0.034410108704859235,76.55965802878346,-0.00041464986991479705,0.0015756344812963123,-0.0006675966097982672
0.515,8.377273914308498,0.023092399761708755,-0.0034987355744729213,76.62567717558,6.372829420188295e-05,-0.0004889239379228051,0.0009575709610679575
0.52,7.5861463098003075,-0.06721500650884317,-0.09619813872051981,76.69847893647076,-9.359149361388763e-05,-0.0015423697407709236,0.0012020799650125946
0.525,7.335076794111329,0.011548430916588094,-0.028558670091494372,76.70230298432749,-0.0012233334002956944,0.0014171123149616307,-3.6805967030849376e-05
0.53,7.525481112137415,-0.008083221887452249,-0.00506428713491848,76.79112351128772,-0.0021529169721141625,-0.0006188865329670031,0.00011385224445461948
0.535,8.176901234825465,-0.02873001102463336,-0.06442833708065797,76.69808638317252,1.7392185761659607e-05,-0.0004742614022296648,0.0011727823435612886
0.54,8.077347719975725,0.06328244478280097,0.014390453742272921,76.77933036811042,0.0007199823612968755,-0.0007683669129735992,-0.0007126711292478837
0.545,9.534590685463801,0.04693288386013539,0.02687257088025037,76.92473608347238,-0.002224457795796002,-0.0005974246653687305,0.000723999983810266
0.55,8.349642941761442,-0.003863913062658623,0.014531909024113878,77.01431960728922,-0.0007989411359418332,0.00020936306315705503,0.0008286899947336895
0.555,8.788576921868907,0.05041656684428029,-0.05270188648369971,76.9580863035258,-0.0012158824300590116,-0.0010471709666327587,-0.0007080351859638709
0.56,8.769160645858477,0.01856068393401514,0.00046362186854249053,76.98583450304301,0.00014084976679640542,-0.00023849383855899576,-0.0026997570565430408
0.5650000000000001,9.250884871602985,0.031910094569268965,-0.06813857399768847,76.97367980017154,-0.0013279331528945218,-0.0009743244975884661,-0.0010454450819577905
0.5700000000000001,8.423019307091945,-0.02381118957516324,5.7708575384386035e-05,76.97971383662585,-0.0025384275393628202,0.002148941494866807,-0.001288135074887333
0.5750000000000001,8.441075332316329,-0.04347080080181797,-0.07745317545726474,77.01001776155952,-0.0019481145300056844,0.0005387374395695017,0.00019154114350906188
0.58,9.446637691930144,0.061201973999957825,-0.07745779436329457,77.10295476435589,-0.0021613014183185877,1.926412760132524e-05,0.0011534219048074462
0.585,10.097880252640516,-0.05276102253864561,-0.037848357295560915,77.06351933883037,-0.0016081550738363942,0.001118060770764274,-0.000508545299091269
0.59,10.418587401861028,-0.04871017185871661,0.008065160764186485,77.20700544678331,-0.0008165754150854399,-8.501425103999188e-05,-0.00043954869408470497
0.595,9.734334997834232,-0.057149260180880415,0.04114362988443556,77.13825768245879,-0.0011745660351503765,-0.0004461794103632373,-0.0004146163210025296
0.6,9.947514519646743,0.08889999925477494,0.053758511511920425,77.2928982113435,-0.00017738888072536818,0.0009976981202806789,0.00031370783450964025
0.605,10.2732318093979,0.04356299173854447,-0.07247807906123441,77.40443141524364,-0.0031800359412125423,-0.001637236437472888,0.0015175366706619985
0.61,10.73527137617249,0.01714400461151557,0.03930435456585048,77.26234376424465,-0.001414699489183467,0.00016494596444646914,0.001341078990636154
0.615,11.351619735017653,-0.03658813289774339,-0.0275778007729614,77.36067230828179,-0.0018929920991968008,0.0024656518345444944,-0.0009280541335252515
0.62,10.235915039954739,0.10483468299573616,-0.028445457265900406,77.38323073946898,-0.0026715113263757334,-0.001523642679927547,-0.0010322413458555154
0.625,11.200999437346892,-0.08785370501067158,0.043598415865770845,77.40197718189384,-0.003422174575650044,0.0010253156905691441,0.0003082539823974204
0.63,11.585660344478763,0.06261949652215859,-0.01738179897724409,77.46325398441037,-0.0022355503301624705,0.0010551711683848808,-0.0003077960384562125
0.635,11.325080175498076,-0.005071540183827152,0.003059967455660506,77.46150412472012,-0.003535870427237171,-0.0019446503717526504,-0.00012980906962058443
0.64,10.652634924617738,0.08627200818334707,-0.02064405415322041,77.55742210349649,-0.0023340726282494845,-0.0002324197223651889,-0.0012842262271624241
0.645,11.028052885792112,-0.02347801442835011,-0.09257951640984993,77.63338075848925,-0.0023359928289062096,-0.00043429103753428705,0.0005181954391258912
0.65,12.679653415602345,-0.04195952593786572,0.008878750494278213,77.60667822929683,-0.0020498444061357464,0.0002725461937728176,0.0006715946127428476
0.655,12.37425297108724,0.1275905130713463,-0.039507494520349296,77.73350800032182,-0.002627052557301667,0.002305676655971678,-0.00024823709720323445
0.66,13.8073211397712,-0.09860351982615144,-0.062112872106566325,77.63596895811467,-0.00018804183893817014,0.00041071469540450076,-0.00010127684445055137
0.665,12.92830249989257,-0.014501438055098853,-0.009722777199220344,77.79193379750745,-0.004696248139210392,0.0011334447513822034,0.0008421031411865725
0.67,12.581701798064662,0.012762966859167169,0.04492076894636096,77.76527858920267,-0.0038458793857989054,0.00046840235629235893,-0.0007140068196231906
0.675,13.639233651738673,-0.07482877399526593,-0.09796677106943215,77.77804960302198,-0.004862978361373416,0.0005728526802550143,-0.0013303874914056613
0.68,13.76246376856153,0.05535053678568976,-0.018909373304390818,77.87007001588782,-0.0018717398308823198,-0.0006614807470694714,0.0004172907674499387
0.685,14.4559474883389,-0.08626578212816306,-0.0259680321516755,77.89245610997646,-0.003779324677838641,-0.0022983191477165695,-2.88234494954403e-05
0.6900000000000001,12.997045535758048,-0.04605218836357286,0.017247403104724644,77.8951313608149,-0.003493401577237099,0.00015870617372341504,2.0461692788409108e-05
0.6950000000000001,13.909675874212772,0.04163488040622053,-0.0912038237141018,78.01394818621303,-0.0031974395653289064,8.569673878252959e-05,-0.00027008415189637154
0.7000000000000001,13.697242792235144,0.0839656896941143,-0.0158623313534306,77.96066730713095,-0.004559853122583043,0.00032025790305184604,-0.0007732728599872872
0.705,14.412294799113004,-0.018897535077904086,-0.1146315307610323,77.96248485258153,-0.005226069023203898,0.0029268276979700484,-0.0018023971430249314
0.71,15.491616410024687,0.09009260531754305,-0.09091033954610288,78.10307207902947,-0.004448749211768691,-0.00022120625266945203,0.00042944374802305366
0.715,15.765480595513862,-0.017191918912934995,-0.03200530984347209,78.15650476354976,-0.003913294446141739,-0.0002862412687209471,0.0022926563517830204
0.72,15.01212264264044,0.019115652903994116,-0.026213562154972597,78.26444576731818,-0.00403196129362069,0.002144993328430193,0.0031223254052989424
0.725,15.558940946445754,0.04304370176555013,-0.14090536542044058,78.2321759947712,-0.005442133884370534,0.0012027170554232756,-0.0015560548546430318
0.73,14.904956752064942,0.028365761174542786,0.037202307475059385,78.46693819110357,-0.0037725130453338685,-0.0005251464551758009,-0.0003231466009278074
0.735,16.019356735971073,0.011067637360322197,0.02677134527681562,78.20793822702751,-0.0051941081061726325,0.00034840963207682826,0.0004986706567614429
0.74,15.921186011295884,0.036850374849031434,-0.05844656219234279,78.3126207336385,-0.006609669004176754,0.00011071354935533677,9.654399860102534e-05
0.745,16.89155501524632,0.031595066025351254,-0.06370859117454539,78.35565558309736,-0.0064416426801861,0.0010233403910499218,-0.0006129481145880032
0.75,15.47325004384853,-0.08945987210088885,-0.003638931117252147,78.37159072480127,-0.006105498813057811,-0.0009364236837973426,0.00041432627921454126
0.755,17.66481197630809,0.09962327717884865,-0.023261561952704495,78.42250345996095,-0.004975638196601191,-0.0016877542338288281,0.0005205911813578276
0.76,16.84004605476796,-0.04231575841493704,-0.06985470127717472,78.49808131383229,-0.005817761535523573,0.00030704976448256855,0.0001455941655535697
0.765,17.442793104260744,0.05122446540235,-0.04701544220768466,78.40460353417673,-0.007290726754925789,0.0010391938657375705,-0.0010881093212506492
0.77,17.38764185280136,0.08928540779364559,-0.009028246601879657,78.48135153665875,-0.007979889316959421,-0.00016355077454584458,0.0003731712347399824
0.775,17.76087509881266,-0.06426484555629473,-0.029499938295957324,78.55376392484486,-0.007948599548150493,0.0002636799805902303,-0.000550320336309115
0.78,18.51212400553665,0.024884822830488772,0.03594529674112796,78.70203744132705,-0.006908703640727335,-0.00010059400689203667,-7.085945632740102e-05
0.785,18.510855386753594,0.043863866674073465,-0.08518179576942819,78.65408338088918,-0.007533115698100534,0.0027520448939518795,0.001895233827353159
0.79,20.289715492147927,-0.029875925786283113,-0.07503377270666847,78.62249521155972,-0.008122951903829286,0.0016441362954230953,0.0008430905067464146
0.795,19.200377740071808,-0.06132925214564747,-0.048401984810883994,78.699340090489,-0.006381864272375087,0.0018927207497599144,0.0004354208491582395
0.8,19.267824077265203,-0.016882730522685588,0.014176280800884712,78.74924450118345,-0.01172942756849389,-0.0005684708858074886,0.00035355952928374436
0.805,20.06076227283859,0.05738916854060695,-0.009404665800171831,78.79823741282424,-0.007472697168795323,-0.0015311532448579325,-0.0005926233829355145
0.81,18.896302224808554,0.025248243292045308,0.06254447490795526,78.81025217998206,-0.010128781926997166,-0.0004884299285890624,-0.00047581685294301645
0.8150000000000001,19.55517515760217,0.015750046199366655,-0.09609450071125782,78.86143649547932,-0.010539994546286128,0.0014791096598149908,0.0008066578120141687
0.8200000000000001,19.619580350805656,0.012749273571342633,-0.05084196359991257,78.87994892480238,-0.008569401706748726,-0.0007960279061964145,0.0005487319202970679
0.8250000000000001,20.34278181545622,0.06075243043113864,0.08381921899285755,78.97288448072888,-0.009851965819905157,8.376016509903114e-06,0.001764031149528408
0.8300000000000001,21.182712226207652,-0.045705428196104646,-0.037218085207850624,79.02254351625614,-0.010629353154079145,0.00035427965614363285,9.25723733313845e-08
0.835,20.08774672564649,0.06274771289290523,-0.03354195062309203,79.0165753385658,-0.011837629885066337,0.0005672934338539973,0.0004863114917758305
0.84,21.37029468100614,0.03404366535588675,-0.03234671582091657,78.93912796780742,-0.011089295914575118,-7.236762354977901e-05,9.765466838884813e-05
0.845,21.22819328466316,-0.062069229323764144,-0.039871827882987966,79.18231064558229,-0.0097230641463365,0.00029353036830826785,-0.0001434109091010829
0.85,21.607566518558727,-0.0017484441022780073,-0.023131790198788194,79.07648077857048,-0.011206666122294772,0.001806217080668318,-0.0006811975556404516
0.855,21.179833266020292,0.047635661241556874,-0.05585767340501521,79.19253218710261,-0.011663955731802522,0.00016362787581055012,0.0003833059769192376
0.86,21.79363538224975,0.0465701153066028,-0.01120341512579882,79.19682655918116,-0.012550331648886186,9.745525002042264e-05,0.0009681691269499046
0.865,23.108063316609623,-0.0910655026501069,0.0582751661094739,79.16416805324305,-0.01149651183937624,-0.0007962982055648393,0.00029112276336266995
0.87,22.953151276990063,-0.07000294706918973,-0.026913899942376748,79.26593273623278,-0.012912004702953062,0.0017117613625051767,-0.00038046104184622144
0.875,23.070089653151026,-0.10296445342400422,-0.028961229566290422,79.32202229296054,-0.011980483633549917,0.00012629116529904295,0.0020107517421717254
0.88,22.930165318895163,-0.05734999666279213,-0.04131324801435871,79.29692683668453,-0.013668901160922162,-6.420703552210852e-05,0.0004086166321981614
0.885,23.539978961874702,-0.0220216527637773,-0.052752736971791586,79.42656350778041,-0.013034969276001965,0.0004181230839591221,0.001070645603915146
0.89,23.904131922220976,0.035825757760832314,-0.06628606020361696,79.38519394349139,-0.014511595869351806,-0.00042321451440718817,0.0007878022652050904
0.895,24.070932166858906,0.0405392669401771,-0.055194038875391684,79.5880146538087,-0.012946258816703908,5.1064502588349205e-05,-7.376401398832244e-05
0.9,24.351213989751386,-0.04625367997261488,-0.12623394282806955,79.53719796523153,-0.013810075297377225,0.0001524669476400977,0.0009627743988638212
0.905,24.39572492757566,0.009562188364287728,0.020797538510341274,79.48473147147182,-0.012440870230393726,0.0006954206786825532,0.00038056417270084555
0.91,25.60471604724047,0.10826674901558098,-0.022076791693100624,79.59897752439484,-0.01505619319241816,-3.9401063521975506e-05,0.0020827131924884483
0.915,25.71370900047117,-0.03826511728357573,-0.003240523742454718,79.58600780378264,-0.014365767862971796,-0.0003431826279797071,-5.588909276132631e-05
0.92,25.6076607674459,-0.00577551013674945,-0.08139996600015253,79.5667567634411,-0.015044827205524382,0.0006409718604271678,0.0009395334114677766
0.925,26.34387305672505,0.04303887744142397,-0.06087902633174639,79.62238845232268,-0.017273625818308814,0.002208437119049728,-0.0014452920328437689
0.93,26.453313531431185,0.08234612562022285,-0.06746316286013493,79.67252469570924,-0.01463396996207421,0.0005544662441941303,-0.0015297277463024658
0.935,26.406697451586663,-0.0006039272664724203,0.02565448261239449,79.76870193702577,-0.017374202142986968,0.0006470855729782516,-0.0018731697276087905
0.9400000000000001,27.59319438621891,0.057920453469410396,-0.09218208041673967,79.69703886230816,-0.016964597330057708,0.0002806254785399477,-0.0006323826224445459
0.9450000000000001,26.875616011654554,0.005274258224720261,0.034901298630351414,79.83855340466297,-0.017750620983684243,9.105091862635061e-05,0.0004277129183507664
0.9500000000000001,27.881919321000712,0.005893617127896598,-0.09545101162553965,79.77629420278505,-0.01680603134002971,-0.0018225168120989262,0.00048486657745554413
0.9550000000000001,27.847225671644235,-0.09717577378990228,-0.09147241403277881,79.86468429296464,-0.016148801323905396,0.001296125872180546,0.0006166746594409942
0.96,27.86720529177572,-0.02211112410454294,-0.049522740185995666,79.89181917223334,-0.019379015144994648,0.0003080340923287213,-0.0008785696219566698
0.965,27.961621024664538,0.038228579753048525,0.008903548195030156,79.92089369361692,-0.01903082970584507,-0.0002824820943574094,0.0012156474493173707
0.97,28.301424995608365,-0.001227610587718051,-0.1021936308446789,79.97725822563862,-0.021148372191842846,-0.0010931295796138489,0.0008468843508655203
0.975,28.942351688571833,0.041653888501614486,0.0067357115466565864,80.02969905945288,-0.017893146156378926,0.0006355343645646251,0.00014931116498132735
0.98,29.75480306396177,-0.07575083547097335,-0.030930542079258532,80.0339003001583,-0.018890776781276795,0.0006247143200581221,0.0006985885094497253
0.985,29.354721515811462,0.028206484675972695,-0.06783871897647381,80.15041297562738,-0.018619797678599757,-0.0010693442835043164,-0.00019648613474797897
0.99,29.06472121784268,-0.0001793230359251035,0.04815354008850638,80.18446406060528,-0.0202351678003111,-0.0013257816518807343,-0.0011950177779691306
0.995,30.651271073888346,-0.018342298384635414,-0.018246151049808063,80.17696353663145,-0.01966214231807696,0.000552726220297123,0.0009965696094803038
1.0,30.552687348223873,-0.15774051719298587,-0.15184006659187482,80.16094145126972,-0.01873004424582022,0.0004938047662652388,-0.0001854043114651103
1.0050000000000001,30.893124805308798,-0.0204713250069833,-0.04910779189717965,80.27943520480085,-0.019982278750871586,0.0003784518954892138,-0.000646415215091768
1.01,32.185522599123715,-0.03963167345032641,-0.0526070018273717,80.11831502180547,-0.019822261732709824,-0.002182663892049515,0.0008716469422831716
1.0150000000000001,31.468123524372338,-0.010732128416997557,0.042123683422563014,79.96707341982554,-0.02265047459047239,0.0021549210492948947,0.0003759942342249597
1.02,31.595216344645593,-0.039985829131273534,-0.12432719122112959,79.90090743854732,-0.021029172056212294,-0.00016401423439135103,-0.0020677630324111365
1.025,32.55149251969524,-0.10118760162628732,-0.043670063250356675,79.89360564838354,-0.019883206467709143,0.0009533129127431189,0.00012211545457903688
1.03,31.280498203128538,-0.0045573283955830796,-0.03982481809034411,79.85256058424716,-0.021807945552252524,0.0017062385953723331,0.0008477234206919204
1.035,32.27025942932609,-0.04427456374674468,-0.08932714868868177,79.75634711332529,-0.022511562365316214,0.001314660553038122,-0.00069432845901113
1.04,33.02744105970253,-0.05198470933299199,-0.08366618974521339,79.7316856993034,-0.02271817363390948,5.625340909881466e-05,-0.001526888314442172
1.045,32.3842883455078,0.05373691429740764,-0.09162810470775187,79.52457313747742,-0.022563422600983575,-0.0009699660430104861,0.0006677130084940736
1.05,34.28694593200376,-0.05556178688720981,-0.15643246515652995,79.47261434722128,-0.0246169932403439,0.00098364269366541,8.008293973632411e-05
1.055,34.44947225122745,0.07475897374320974,-0.08475394183245365,79.4339068537282,-0.023038043696227552,0.0029753337892240257,-0.001510273469529776
1.06,34.748543463226596,-0.10405798009455214,-0.13702084881991305,79.39731672105799,-0.022469514518626017,0.0017714980116845746,-9.830231586550664e-05
1.065,34.50018996248109,0.037133867252608845,-0.05888077131812016,79.35959733140328,-0.023809144577718044,-0.0005982769940617326,0.0018422359155117938
1.07,35.339983757788495,-0.03174621996157934,0.04284246579136418,79.28071778444304,-0.02337865112800669,0.00027181998024795255,0.0010618005178300966
1.075,36.490604356572966,-0.07322924585039738,-0.0986311853431269,79.08719095743085,-0.023820959649272073,-0.0020062610765858527,0.0002852481819255313
1.08,36.30622326871021,0.051439473138226076,-0.04983795292733548,79.08714485087822,-0.023350571421808065,9.343584297190439e-05,0.00012675696594633174
1.085,35.42853924141109,-0.07588897825919622,-0.02369258777858578,79.02574354483724,-0.026053812392617424,0.00027677371530891135,-0.0009020992618776128
1.09,36.498088732848494,-0.002194452998258497,-0.06753929564177208,78.9143403297693,-0.02540675353021221,0.0003165608509046883,-0.0010506851629008805
1.095,37.78691737448706,0.050586662294560894,0.06721605614449865,78.80473234934844,-0.02602958642461726,-0.0006426092369474957,0.0005481043155522116
1.1,37.6384742435529,-0.01665033383897258,0.012924142564636545,78.84374167236916,-0.027439576014693087,0.000323041987652366,-0.0013173148933403901
1.105,37.74759553522636,0.025958927179333978,-0.056469206610680084,78.79678875997556,-0.02564923911749592,-0.0010543300781381405,-8.486977886113341e-05
1.11,38.14732906843118,0.04456099047277354,-0.06403572523987347,78.60124833803759,-0.02804289670839819,0.00045640811183376333,0.0016892915457924493
1.115,38.08895022906452,-0.032290714819731996,-0.03493152473423265,78.51015074317134,-0.025770631257823806,0.00018761118284589152,-0.0012688419575617033
1.12,38.34306007622248,0.01640547693241459,-0.04711184059989242,78.58665822266175,-0.024736407578710668,-0.0003748259267514224,0.0008862064514528382
1.125,39.831321587546505,0.04326699472764095,-0.004878620692920423,78.5243632169886,-0.026271470291640762,0.001596790347822585,0.0004296739831392632
1.1300000000000001,40.528252878011294,0.03217173245333105,-0.030742932557369738,78.33515792838793,-0.026558730449842687,-7.987881770836594e-06,-0.0001838325242255662
1.135,39.872404075985095,-0.016320085667971225,-0.001462001497984547,78.26717738983373,-0.025993836267020818,0.00027294804912741374,-0.00010905412204096677
1.1400000000000001,40.380117275536726,0.019868558416995346,-0.005805400690209274,78.24222405329292,-0.02826942739298386,-0.00086172857610356,-0.0002658025482924052
1.145,40.101452540144464,-0.05384255872147107,0.012986747697231602,78.10313017488924,-0.026807532846294238,-0.0020925438862616323,0.0009099144881496385
1.1500000000000001,40.28431106163938,0.0453428132216914,-0.030180438450582377,77.95949711415385,-0.02636526218917687,0.0003850586577559713,0.000937890060081384
1.155,41.23143167248971,-0.017238660756242294,-0.002281767049011344,78.0496116112035,-0.025522195789402725,-0.0012765093642417447,0.0011789227224530514
1.16,42.03370685703006,0.00047088197529051527,-0.023360579627759146,77.81439557806864,-0.028093179170226017,-0.0011063308612450338,0.0005397754505809618
1.165,42.31439527276328,0.0949744794753439,0.09734856649387807,77.84354627769667,-0.027670054158092868,-0.0003748164467335275,0.0003273409343021205
1.17,41.552808112848375,0.012222041144527216,-0.035954627584882555,77.71772830569421,-0.026395097983229237,0.0015934764931772975,0.0027084472491902744
1.175,44.185293694780185,0.02840603829963619,-0.005082103970311412,77.62945816051166,-0.02790962427306621,0.0001133206588899112,-0.0001670808763930691
1.18,43.84743200168547,-0.04478049574738966,0.006147215529182789,77.61810922160623,-0.027801722570812724,0.0005186856045761061,0.000562253855074825
1.185,43.59293379683261,0.05338955884872381,-0.038222991116179855,77.57339357877778,-0.029599041314498958,0.000265373253214392,-0.00045709185215255654
1.19,44.41523390684532,-0.012663484613945106,-0.04382836987179372,77.52344210678848,-0.028796410960443414,-0.0005133340344502587,-0.0011183774470812891
1.195,44.28388963163813,0.07632757494023165,0.012185571761125093,77.37518248543346,-0.028761365357059445,-0.00036248258162262036,-0.001343888808723104
1.2,45.31303854503046,0.002160806982708833,-0.004219830311034083,77.31099597807703,-0.026963133637342682,0.0003212950079056958,-0.0003163254561198951
1.205,45.55737554351978,-0.022001798814055454,0.12763658929867824,77.2644857235069,-0.027888836298823185,0.0012709668781593186,-0.0007963438283820774
1.21,45.320515557483645,0.03358138909840465,-0.07216619340168816,77.23441174811856,-0.028984299823801997,-0.0018340270131012124,-0.0003312904656843548
1.215,46.50593808144412,-0.10092047556558663,0.03051150809723091,77.09817381299501,-0.028144061171863865,0.0011007114096674272,-0.00018080807055363818
1.22,46.83574546050876,0.04339180599794365,0.031388061779435775,77.04800293806683,-0.029377856935841627,-0.0006399571989102472,-0.0002680428559860113
1.225,46.86784498010961,-0.06030873226722251,-0.06576118705852083,76.95317125991882,-0.028306621720171517,-0.0009830493128134522,0.0022142691714437373
1.23,46.81386308909153,0.04646580992375114,-0.08823762821721065,76.81797529393376,-0.029615513943081463,0.0009611253412788912,-0.00014229936342418663
1.235,47.89305615535984,-0.009776079723302817,-0.04850826996418347,76.78245127353921,-0.027645299469815105,-0.0005234001321549676,0.0004735958206414233
1.24,48.29804822136295,0.011515784617489639,0.013095151558990607,76.72030259992576,-0.027839210628527154,0.00048780229998109765,-0.0008286050297626264
1.245,48.76704086706301,0.05383406961028119,-0.02278264245425896,76.52250584533984,-0.028541131694108646,-0.0016242137756106406,-0.0005162452975578884
1.25,48.87070018965036,0.023054764938167084,-0.00064261735197028,76.5479792427599,-0.03011046807083245,0.0008511987086932898,-0.0009828981136078283
1.2550000000000001,49.54949624205155,0.024170724842250583,0.050126627007984904,76.4346051734714,-0.029154697988926715,0.0005449460665197794,-0.0004922387546762673
1.26,49.37309637220538,-0.0018771080682808477,0.06160363003897852,76.47750063601498,-0.02841779476015602,0.00030604364407763577,-0.0011833435901512628
1.2650000000000001,49.7232355112022,-0.02778231139559919,-0.012276360002855213,76.34479064973264,-0.0290103750766155,0.0012542608849042233,0.002176667617871263
1.27,50.34845060707812,0.06593730816132758,-0.06602942793412621,76.28409868608654,-0.029228817949041537,-0.0011609903556604002,-0.000896367352313391
1.2750000000000001,50.667470476638634,-0.09873223733565548,0.0617371695218981,76.24859041778934,-0.029276906267689425,-0.0008228381779360103,0.00036052618707034143
1.28,51.74342477246888,0.05666490979020572,-0.03789580792842101,76.14772017032378,-0.030913256273184152,-0.0003411831370927717,-0.0009287294685728864
1.285,51.95120193286186,-0.072385487212977,0.056536203045327686,75.9932712288244,-0.027446199103493767,0.0017501544225558162,0.0014172825248604415
1.29,51.82759529346321,0.008999461358378537,0.07833216531178774,76.07122890158617,-0.027213043525043223,0.00015964361533290087,0.0018162816201813079
1.295,52.03405115379366,0.052496626889340266,0.029987227967422675,75.88435214107703,-0.027490583788366527,0.00018566881358219377,0.0002863098583855054
1.3,53.227655325088456,0.02517252010535248,0.04083388971624397,75.79145260136902,-0.029173904454096546,0.0002038732110271303,0.00024490478475381065
1.305,52.65024396126438,0.06032985648220641,0.011055157712721073,75.72026151809266,-0.02977812431020218,-0.0010395941899643175,-0.00150011974583758
1.31,53.43541385082175,-0.00992666215188734,-0.03969116525280844,75.62929346189657,-0.02979893860140215,-0.00015518377574310892,-0.0018108894290315022
1.315,54.42399587560067,-0.04147693903356219,0.021037134203947764,75.53789780075373,-0.027827876825872688,-0.00047844467053702333,0.0007072068068290201
1.32,54.38117956917353,-0.12473220150885278,0.027817310326391786,75.56952574268921,-0.029071160068328186,0.0009804541979064343,-0.0011459963346125356
1.325,55.54485073935681,0.042867121128208466,-0.02407535885843674,75.43675019915489,-0.025907313754930637,-0.00037439300188947907,0.00010748292732127918
1.33,56.263097607475615,-0.03792664389785563,-0.06177539077987716,75.30275022166276,-0.02727181009564889,0.0006016090998672897,0.000945536049030558
1.335,56.17112452321161,0.05356659280690314,-0.007243448103982867,75.36363452574919,-0.02582733593846449,0.001342443419784335,-0.0006416908495091748
1.34,56.42254206453432,0.03778917821090989,0.02464413758110163,75.23030376693508,-0.02639240517441654,0.0005469445773117639,0.0003268997319426068
1.345,56.91291933866634,-0.07982051654611125,0.07269671011633826,75.12712461233446,-0.027279706660183634,0.001199380833622592,0.00033411631309108753
1.35,57.248634698418016,0.07968084401035881,0.006862875466193633,75.01349487578783,-0.02583343705099911,-0.0016740058655295416,0.0005777973744130871
1.355,58.05052483755434,0.11391162355476496,-0.062060275914316426,75.01820705596344,-0.0244529710392384,0.0003626771228048319,-0.0007422006002752803
1.36,57.21635994185636,-0.020863704543905143,0.11032388367672466,74.90677987262379,-0.025942458423791434,0.0005133503543867149,-0.00017419563792284542
1.365,59.41981582947424,0.0818826256026575,0.06349145113244391,74.88248944665531,-0.023352595493280556,0.0012179981432142153,-0.0017404470515273427
1.37,58.67598243515523,-0.050105844367059185,0.03159562157108593,74.78710835098983,-0.025132191873908458,0.0010299611343596682,-0.0022355333350520157
1.375,59.82781737716218,-0.06907155348871474,-0.014452890445292792,74.70735304410961,-0.024805883588465465,-9.847557396959197e-05,-0.0007546617267148082
1.3800000000000001,60.438460857886334,0.04440479756347303,0.06361494842582649,74.58992774852545,-0.02431045739241387,-2.5029852835850748e-05,-0.00014276173031649045
1.385,60.0896565304216,0.07354117256588956,0.0991588854875492,74.53656109624407,-0.025323807423006016,-0.00038582453158261153,-0.0005587279459436043
1.3900000000000001,61.26740286614853,-0.13466259565671743,0.03653906204913203,74.46385883271236,-0.022952954359346238,0.00014926619894605717,0.0007511724407177232
1.395,61.73968588573271,-0.012518134936816819,0.035730837581126974,74.39817667115017,-0.02238004539418441,-0.0009310785217345432,0.000795201785751358
1.4000000000000001,61.79855068237529,-0.022554335410769996,0.09427522537955901,74.23001556037735,-0.023704670129551093,-0.0007311006835645067,-0.0007536835229357353
1.405,62.25368643028711,-0.0008540567987714714,0.09803205504479472,74.1483935084384,-0.022251634987212398,0.0003534395846531679,-0.0007062339364297431
1.41,61.73813975179562,0.031732968666791254,0.04711309500273572,74.19630372703836,-0.020620083110205,0.0006178646359686906,-8.161523405872686e-05
1.415,63.47185568817239,-0.014358545933243077,0.08639855233460625,74.02333652819743,-0.022678333588941398,0.0001769263628561437,-0.0008660752492176143
1.42,62.9457732317505,0.05300220533620981,0.01824427130996562,74.001741670236,-0.021529151629970714,-0.002035629157184174,0.0007588256815966912
1.425,64.23172046830625,-0.1214753029445267,0.11299398080584015,73.90643072022367,-0.021988398459404267,-0.00053972244038563,-0.000984010711582802
1.43,65.1430567186599,-0.06425901009118681,0.0404328723041171,73.82440796857635,-0.01944713396555199,-7.772874787047806e-06,1.235207616036427e-05
1.435,65.49645541292294,0.07050153657378376,-0.0077928854767442615,73.76664189853427,-0.01885838299351797,-0.0009255779249724477,-0.00045504512376658504
1.44,66.28161047336624,0.07297875831482165,0.09828371961629581,73.65785115623437,-0.020526432893931933,-0.0016539131240384415,-0.0026760177279978423
1.445,66.05592769520608,-0.0081781607547179,0.10747639781012501,73.53941966605835,-0.022146800561122264,0.0004278791938277133,-0.000666001138313306
1.45,67.49919965904242,-0.025103511476645645,0.044210096591995644,73.48827190695118,-0.020226422071609074,-0.0008756041030122224,0.0008199114502487234
1.455,67.84851607281205,-0.011591584461486813,0.021179481809677998,73.44495302275104,-0.0166332722332376,0.0013567199476133063,0.0013413319208831558
1.46,66.49788387854018,0.07142140548252562,0.05532294565294784,73.40090751223609,-0.01741375870826212,-0.0016081151310261455,0.0009525538477086075
1.465,67.30829179586257,0.024918221978921847,0.12745944008733015,73.25772970258492,-0.017556293033132556,0.0008114503458577914,-0.0008186144069496769
1.47,68.27533249305357,0.01411832774993974,0.12009839075962643,73.13681391818179,-0.01743034570212085,-0.0006772780928767667,0.000476988892656822
1.475,69.38092508583355,-0.03671424222993178,0.11000277604446299,72.98251667437653,-0.01753561829440794,-0.0016247257230548868,0.00068697366819347
1.48,69.8241759414657,0.03890716002715841,0.13738547999193734,72.88623535855784,-0.01617603191128283,-0.0007799269143137664,-0.0002827825101758509
1.485,69.74924184066415,-0.015267694830851799,-0.013129237373658204,72.8686931835595,-0.014264923788066135,0.0016671064376418629,0.0008412949635407345
1.49,69.90038081013577,-0.07197059647779808,0.08446159152512799,72.84130210691266,-0.015012271206473197,-0.0011752834640535415,-0.0015447110546233708
1.495,71.80556170392767,-0.04974712705247659,0.10811524549404813,72.83635990948392,-0.013474319695874495,0.0008562615443751826,0.0003533260039487446
1.5,71.53231555856374,0.015109126451756704,0.09547907858500582,72.82453301402793,-0.012520980691750297,-0.0005485017812272698,-0.00017688134561777142
1.5050000000000001,71.3281681213162,-0.0011284950888458874,0.03660419073252982,72.74233924378429,-0.011588720752141029,0.0005727818957693513,0.0016982573998797475
1.51,71.94487599377851,-0.06736930278690022,0.06626586750023784,72.68752411835702,-0.01482771378584198,0.00035523760944380613,0.0004237530946394278
1.5150000000000001,71.56779562680573,0.085199910895096,0.046370607722048277,72.70091223200262,-0.013085588884127943,-0.0019691002428854107,-0.00011570363166242142
1.52,73.771220503482,0.014378004589013874,0.09917656539552552,72.71656634505455,-0.011820002140393205,-0.000699533355076485,0.0005372986603762169
1.5250000000000001,74.21020403879214,0.05569462053326268,-0.014554742086517053,72.6377070298798,-0.010842513316631138,-0.0007208530733595353,0.0011221267737512818
1.53,73.76358764109575,0.049836977973622375,0.05453129729445737,72.63274509257607,-0.008900419189665667,-0.0008439618811645849,-0.00107829241658991
1.5350000000000001,74.01642186857377,-0.012853119397660658,0.13212706537925015,72.60159381583662,-0.008844681776136874,0.00016919161249790587,0.0012096979827052664
1.54,75.26985816341247,0.0607661644412578,0.04503551014224896,72.63766305728056,-0.009726397032084281,5.08070847443737e-05,0.0004589201770765557
1.545,76.07036034001813,0.006658473116869863,0.044098130511346326,72.62283710339192,-0.00812849099676418,0.00046383123650216984,0.0009505034023577566
1.55,76.43631899487173,-0.010346790675971718,0.03952642794209088,72.59134300194272,-0.007655839622485915,-0.0004052670865463099,-0.0013814961299806394
1.555,76.52074467737,0.011633262306483594,0.029160141834342262,72.4873819611158,-0.008801097713726329,-0.0017260631570301915,-0.0008145529603264893
1.56,77.19662026688746,-0.05552940727814533,0.1557937394779446,72.50958691230633,-0.007793977506522328,1.3110906077263879e-05,-0.0012028246609276363
1.565,77.39572708040728,0.021867496285422366,0.06442616986287161,72.45150217652875,-0.00823871584380605,-0.0004288208416553443,0.00018141656807833364
1.57,78.27469583732649,0.01727300934746649,0.1255141655864798,72.6038467434403,-0.007102981713279188,0.000680197535621194,0.0009702557631480879
1.575,78.62023687089865,-0.027953924075641963,0.1912547489950728,72.47209172518875,-0.004829411225310972,-0.0005264238728956411,-0.00041590118120606457
1.58,79.02011017693206,-0.09388481173106769,0.026948176740040172,72.49082841382514,-0.00502218745289566,0.0028955970896906587,0.0003686332265061054
1.585,79.72952620982737,-0.031342329527717476,0.09984222847183191,72.41904104350664,-0.0038888692081469603,0.0005447312046707618,0.0010985280276332807
1.59,80.45415801019253,0.010484835280318646,0.06396273213800592,72.51555870465982,-0.005543830724821657,0.0011596795427227728,0.0010521674786514998
1.595,79.92364040023548,0.025609851503971413,0.15422122378150138,72.41205282393837,-0.005609094018156804,8.433534050185281e-05,-0.0002279616322577828
1.6,81.47194101553397,-0.05565843511114153,-0.004149113095651122,72.3889952751034,-0.0027269682870177878,0.00021758835752790228,-0.0015082060702689144
1.605,81.59855997410506,-0.0026906833708920837,0.14364883866396505,72.36985157166676,-0.0015433515231836306,0.0002595008540180032,6.613800114520217e-05
1.61,82.17138900061633,-0.06731334612486468,0.035645577776418705,72.41813780115861,-0.005904834432498925,-0.0023784994736435468,0.0004120402206801058
1.615,83.11140557313009,0.03867100282340298,-0.05227458672314096,72.41584516496523,-0.00043766712206914243,-0.0010877204509721053,0.0012138363908045411
1.62,82.89247177177516,0.02177522750665566,0.09693559942491684,72.28610426241197,-0.0020443869960563295,0.0011212261867327429,0.0010581849936177302
1.625,83.77845829192354,0.006539372200962394,0.0761251504262954,72.28692076753603,-0.00012163873806909009,-0.0018682315501386084,0.001884511338997627
1.6300000000000001,84.49659707265332,0.024787290774970435,0.0817390431193242,72.28883256609133,-0.00018175178097694367,0.00012897704881387537,0.0008799102088169315
1.635,84.13615131501122,-0.03812307492086835,0.12420985911004569,72.32481705070315,-0.0005430664641738411,-0.0005634501352400298,-0.0005216722089401843
1.6400000000000001,86.17038823418538,0.02844205253133111,0.07292411028597759,72.26129887065225,0.0011585717213187378,0.0007265195425124636,-0.002566363140271322
1.645,86.37976744439351,-0.009714328633636467,0.03850947783985277,72.22560943427771,-0.00037637600327921196,0.0003378616890535517,0.0012142831524998377
1.6500000000000001,86.61363246155567,-0.06424135411379103,-0.001442129294639674,72.31220422150237,-0.00030387197084168573,0.0018628477781614517,-0.0010230568745563534
1.655,87.44155352107434,0.05864724026337816,0.014873758087466188,72.26812004273287,0.002064113662619209,-0.00042677756960523417,0.0009586218803838323
1.6600000000000001,87.52973696563191,-0.04892313962163408,0.07389392634401404,72.30309680858477,0.0018189883583679541,-0.0012208220267305038,0.00034426157446699074
1.665,88.05540903566411,0.04130489268394673,0.08651747939264692,72.31408262129287,-5.309284693468105e-05,8.932717475370934e-05,-0.0016137969647579394
1.67,88.7925221144615,0.01646051431811453,0.17670950121936152,72.2470451305896,0.002217442798723422,9.53792020354163e-05,-8.15621823647341e-05
1.675,88.84100188446628,0.045385987550042604,-0.012513356592227028,72.179570112733,0.002208256277068139,1.487427289021999e-05,-0.00019694580927288798
1.68,90.14942546095496,0.032035784417076746,0.03246919926603716,72.19198629960486,0.0030955622469990367,0.00026863352496641897,0.0019555335974762457
1.685,91.10495960020063,-0.010625005227562467,0.08177116748857974,72.16541039997173,0.003588030544960846,-0.0011526930266261292,-8.46696393058965e-06
1.69,90.2671876280552,-0.04325718279166964,0.04350853496621087,72.19365717246095,0.003481868250944721,0.0010321922130653097,-0.0009391636574117676
1.695,91.09580106682893,-0.017557872091641287,0.06788641115329683,72.2863445252597,0.0033990299059813954,0.00020792160825167322,0.0004715497435173453
1.7,91.51627391398584,-0.06945876799304343,-0.05064594471117251,72.11922900898122,0.005142617708472009,0.00021177528895681657,-0.0005239338110497487
1.705,93.07671003390976,-0.03622297803968051,-0.04535672450857468,72.05696201885381,0.004179083443381684,0.00045009265548400483,-0.0003553154811666211
1.71,93.13842915778689,-0.02723014379033121,0.005453084845146349,72.03360751744103,0.0038598639099075033,-0.0020527904099148547,-0.00025626861776613066
1.715,93.76502661524704,-0.12140416119452754,0.030485345310226203,72.03027243401084,0.00485386087519165,-0.0006351703454463103,0.0002752683862520962
1.72,94.67099765267642,0.002593749836476422,0.06581781214239822,72.02162026137273,0.00371575408727586,-3.966996059937136e-06,0.0008697217249405397
1.725,94.65581803471245,-0.023386633804687362,0.03240738343007149,72.08372786411446,0.004569797900880884,0.0019921542626609935,-0.001489930749235465
1.73,95.38395797348146,-0.06044918905190313,0.021609288625694754,72.05544191912261,0.004241312963994214,-0.0019298582575082526,-0.0006928642472002784
1.735,95.5904939847354,0.05199039861611725,-0.028907481800042666,72.03671998490063,0.005602113763561947,-0.0009446823822355848,-0.0006951871231646769
1.74,97.02054509889675,0.022981133273111853,0.04489674182923811,72.00841023964578,0.005908753391579742,-0.0005527274926318361,-0.000522570346360526
1.745,96.17221865304272,-0.014709620820279287,0.03274667081163457,71.98046528842703,0.006410800157940703,-0.0013474217945535533,-0.0004895853196443911
1.75,96.56567213557643,-0.050747892533562475,-0.005750202394868191,72.01729272396042,0.004407687544740795,-0.0013834749525373994,-0.00026630825953051864
1.7550000000000001,98.86058665035947,-0.07211161428187429,0.02006447352749806,72.00482290261357,0.0065500724408038315,0.00029362700237059686,-0.002434301188049953
1.76,98.63983274588631,-0.013350996978024372,-0.010630520933503466,71.9756649479945,0.006428070023772738,0.00022480599322064208,0.0008312928914736808
1.7650000000000001,98.93978407705096,0.028387599418840524,-0.007735960081977111,71.96966298900404,0.005692236709513349,0.0013632790641447397,-0.00013455532385631675
1.77,99.66665059375315,-0.029496225934968492,-0.035696198927291256,71.98113619546862,0.006607122202073468,8.373862496480688e-05,9.066081660051021e-05
1.7750000000000001,99.88735828146653,-0.04032762922893482,0.008061890100846942,71.88460414170157,0.006218464126558704,0.0007333530710666389,-0.0016218998763688902
1.78,101.2729903814732,-0.01773494994043097,0.0300108091619381,71.89678542753059,0.006914807397613627,0.0015740914389636208,-0.001211020352834102
1.7850000000000001,101.22749024123861,0.04519121835690358,-0.009538749310579938,71.83780088337737,0.005341339418563862,-0.0002771525380183269,-0.0019128507766359897
1.79,101.58959507241124,-0.08635698076501604,-0.07869709756800972,71.80759520253145,0.006567235118290913,0.0015373500303050795,0.001275539645774215
1.795,102.94223212107512,0.02484992540729989,-0.07485906214370441,71.85127865975439,0.006724781413197675,0.000294204238582285,-0.00016011594858506218
1.8,102.21004049597597,7.526021627280582e-05,-0.016177119190228607,71.90942832614546,0.007208548697923384,0.00017383378605006805,0.0011138617560595278
1.805,103.63766568146141,-0.06753018428339033,0.03192052517196258,71.82555663290155,0.004605817715954686,5.9581958716884836e-06,-8.663999880159853e-05
1.81,104.6969608182182,0.06257916750128178,0.056860837392052055,71.67696204373117,0.003696657594949809,-0.00024262704689384664,0.0009297368621704519
1.815,105.73813897392876,-0.08632238865536362,0.009045998707491044,71.72921965280578,0.0063910353112318205,0.0025547810815743535,3.2316951271181544e-05
1.82,105.02799707620045,-0.06849376061413755,-0.021373813310214623,71.82242385489248,0.005032876926609826,-6.141474255258908e-05,0.00014874167147610305
1.825,106.46066530474516,0.05288555249455945,-0.0485093940081844,71.73803511395884,0.006654932411905105,-0.00021469083965270624,-0.001340524494244164
1.83,106.9563775686668,-0.06511494225822086,-0.0745187491688403,71.71691334504618,0.0044878479320337354,-0.0005817595168852086,0.0010272927206571778
1.835,107.59102124943689,-0.1082636748421013,0.05289220380542854,71.65919496061126,0.004124763332225607,0.0013097646887471357,-0.0009670724920212493
1.84,107.59458098411994,-0.05859091912834244,-0.0631102178175411,71.55992701612281,0.0034568125623658796,-0.0014363709021877114,0.0022840960040280927
1.845,108.33011223683542,-0.052133316965338745,-0.07840560012941815,71.72648143821581,0.004418079619714423,0.00036179696448152346,0.0002566358579571374
1.85,109.42732022174685,-0.023357368027364062,-0.07231735988354525,71.70294261796438,0.004582558424230075,-0.0010677675717719946,6.595031540710891e-05
1.855,110.11252907042825,0.047884192545920065,-0.08813669789814647,71.73532031981756,0.0040863206276446915,0.00027313005403281393,9.293604109045174e-05
1.86,110.09943794435483,-0.00682648382323779,-0.10801516065411362,71.60390593312792,0.0035848398288035946,-0.0014645146201733227,0.0008335215992195421
1.865,110.36736083879774,0.08282407406890491,-0.005733651417387339,71.66345516463393,0.003997361933275049,-0.0008539340448045103,-0.0004405821818963026
1.87,110.99484382560637,0.04845813409284504,-0.07385050892961345,71.6477176123503,0.002799495725772188,0.0019900340775141833,0.0010348896632649688
1.875,112.35644815530556,-0.025300629115529258,-0.006921057853904039,71.52403586458897,0.0008737369450795098,-0.00012252434953468242,-0.0007279199571764503
1.8800000000000001,112.73403136820453,-0.014274242743065121,0.027601552370596465,71.57271030635425,0.00130084556806586,-0.000891287144333119,0.0001356784943229743
1.885,113.95419127557174,-0.033418146204637025,-0.0927620309232091,71.5708629033691,0.002703734732750441,-0.0013382218640759884,0.0005865402886971508
1.8900000000000001,114.1454207459045,-0.0407258729622407,-0.04272530132569954,71.4984920002472,0.0005358717239452335,0.0006047495820917184,0.0007760646304468705
1.895,115.34959571483088,-0.04970730586394414,-0.00659716810327713,71.56272777661307,-0.0006692725025314882,-0.000618721309256731,-0.0025377433375790644
1.9000000000000001,116.04239976162035,0.026180460396097595,-0.04702599170194498,71.59899402739318,0.002199133685068377,0.0007282604323492623,-0.0005132403713485674
1.905,117.16499108373154,0.026059231873383566,-0.07400568525889098,71.5289726639691,1.8720934682544318e-05,0.0006106333044972748,0.0006859937788831075
1.9100000000000001,116.84668336915809,-0.02170396092241276,-0.056451910165901856,71.51824925266743,-0.0008558880489489373,4.347828234877489e-06,-0.000904299568371414
1.915,117.13945737428827,-0.07873466948229678,-0.046729349280496435,71.50310358530804,-0.0029314260245369254,-0.0010173233906378414,0.0002245532976623047
1.92,118.22093763226248,-0.06798443043350388,-0.062046847690564844,71.43122050225566,-0.0016444544392292704,-0.0011109100358576702,-0.002181831008817777
1.925,119.14688592151657,-0.020389443269923337,-0.10132970617227904,71.38641639068555,-0.0018660237442556073,0.0002840861239767221,0.0007714512657951686
1.93,118.84468149634803,-0.031891818057811085,-0.009937167150080362,71.31446510522824,-0.0032115552522931547,-0.0010322595651177148,-0.0005029600548877439
1.935,120.21430877563559,-0.0024312617109824835,-0.026198047984027778,71.38313604764754,-0.0018869232524442404,0.0003509822186393055,0.002566845990830143
1.94,119.14063398229374,-0.05723289239746514,0.008725902806808544,71.35564429932973,-0.002391099693191029,0.0007569071030097486,0.002237234075960678
1.945,121.278876181757,-0.04215698878675303,-0.02553470620080886,71.3346762853481,-0.004445993747239452,-0.00033641636541320796,-0.00020745228902741014
1.95,120.96064926760641,-0.08480659254490938,-0.11283266081092308,71.32162502044058,-0.00558715958332808,0.0011702124836912918,8.726700012656703e-05
1.955,122.18595934837799,-0.03577830792072148,-0.08371367818251264,71.4831032565763,-0.0046788163144969854,-0.00044967616148777073,0.0002732492405293765
1.96,123.805344642071,0.0009748894712870194,-0.06731977618446133,71.37161180643426,-0.006505755746028089,-0.00016645318659234618,0.001368478233863942
1.965,122.56287523333219,-0.11655330338683749,-0.0279325554826131,71.16736628781396,-0.006301894004505248,0.0013402977649415728,-0.00020330979166605613
1.97,123.69721718827611,-0.027696021484564612,-0.08120446917909664,71.28822555197284,-0.005405122771856749,-0.0003648987019752425,-0.0007842630045220599
1.975,125.1540455269466,0.037443111873925294,-0.12029461073015056,71.22675091275755,-0.007997572447167029,-0.0008619229954338407,-0.0007589658334271182
1.98,125.21372820104095,0.023648577786141572,-0.0961300005948701,71.30155987808755,-0.008281234684996752,0.0014482190739221546,0.000128822663746956
1.985,126.5354912206769,-0.033393266213844204,-0.01768943185476013,71.14047320924278,-0.009049077003293002,0.0003735098295594608,0.001103682964819078
1.99,126.51850335319183,-0.08345523955403664,-0.05768507150579502,71.16763790377234,-0.008117842127504615,0.0007395317581341688,-0.0008362301885261122
1.995,127.08115204496467,0.01734583974975236,-0.13872577512560685,71.16465892758761,-0.00839476351921354,0.0004458033834520954,-0.0004554766573150711
2.0,126.60360178052615,0.0514162046786341,-0.13390130343080173,71.15219568441508,-0.009776348475570991,0.0009232105277792675,0.0009586288798888372
2.005,128.76494757939585,0.008654664262913898,-0.059508407870764224,71.09049820056546,-0.01014755068645957,-9.682054305276882e-05,-0.0009822437294138783
2.0100000000000002,128.84372772035306,0.03896920469834843,-0.12627240007629084,71.16086274925075,-0.009872940704574498,0.00029926689848816903,0.00012660382825402023
2.015,129.67426639365019,-0.010786850829536449,-0.06949063014444652,71.05945176245973,-0.013397977398603874,0.00043197778041751224,0.001524344112105981
2.02,130.4378170848334,0.0013131524339264674,-0.04146661971797939,71.01584414953895,-0.011086744835046953,-1.0793142812875664e-06,-0.0008251777548396423
2.025,130.38991989549547,0.018200626109879218,-0.1402802513203109,70.96668887640924,-0.011215091067177812,-0.0004355550842574968,-0.0008785603015855163
2.0300000000000002,131.9231212177096,0.020518390132452297,-0.13965226233066852,70.85494228765836,-0.01117153878961888,-0.00015655581330387583,0.00021769605615092673
2.035,132.1804497919823,0.05826496940329895,-0.08445285916204451,70.88967415204932,-0.012994503605560922,-0.0006080943917655134,0.0009355424523066231
2.04,132.6731271489658,-0.09365198683470276,0.022298278132072788,70.88575263762132,-0.014202182882314014,-0.0019967888040997883,0.0003940989545779179
2.045,133.69353612618386,-0.044477844798135574,-0.1173547751448476,70.81647067926211,-0.012038230090085856,0.002271636531980727,0.001596504428275317
2.05,134.4236808170032,-0.11196610070454442,-0.006235015555194921,70.70706756646747,-0.015764467016330944,-0.0008936189272528532,0.0004719211661345584
2.055,134.8668039725866,-0.1017296327303199,-0.04185145178456767,70.74743308475037,-0.012707633086319118,0.0011909304368177404,0.001017272801255953
2.06,134.90898824786217,0.0029623654705469293,-0.06253761233346307,70.59829072588518,-0.016381801054626857,0.0005087191719686673,-0.00024980224436149944
2.065,136.48491780518415,0.07523577431873575,-0.004427513203515261,70.6868488857198,-0.015096226661144498,0.0007204946873153004,0.001285391873312374
2.07,137.27046293598235,0.05137894969645029,-0.11210447000269871,70.64087730880993,-0.01722378201717057,3.481234649149723e-06,-0.0020444272897396257
2.075,138.6360205951629,0.05063190072983985,-0.092283246866071,70.49668624307007,-0.01781129256503021,0.00014310871465623038,4.996597138263497e-05
2.08,138.19750809325433,-0.028797538748823907,-0.0946445875286567,70.46153858004799,-0.01660010710149755,0.00011104256902233088,0.0005037411714038779
2.085,138.89000549457222,-0.005808937335860719,-0.09028888038749433,70.49689082138066,-0.016431332489303594,0.0005702664290756572,-0.0006404900532684104
2.09,139.5882792539091,-0.08029309774168222,0.025617673872117226,70.44063147955217,-0.01655517401674283,-0.00312013569847213,-0.00040446071542602884
2.095,140.60798056603485,-0.025799470270124997,0.008622311193258278,70.38962112258862,-0.01724011662305093,-0.0012123311776532965,-0.00011708544444787365
2.1,141.07610769457378,-0.048521949715857465,-0.07918270507022593,70.30674421900392,-0.01657800740765992,-0.0003069555172024216,-0.0014534240810330067
2.105,141.56826813142587,-0.09185912908801365,-0.07821291976656458,70.3328858478044,-0.018058436152972156,-0.0017163588134710456,0.0005333640607712992
2.11,142.2388540485419,0.01288325475273371,-0.07230124244051839,70.35003142012118,-0.017484918677332276,-0.0001553949353460989,-0.00038678458901228777
2.115,143.94184337083453,0.007392389714242309,-0.06351651618505438,70.27856164705389,-0.019161029625176157,0.0012938052389130138,-0.0008169898201641575
2.12,143.8298469966577,-0.0678332612683082,0.010165017953413187,70.20318795682431,-0.01753411037710954,-2.3443845586953917e-05,0.0010152704230524967
2.125,145.35626783693215,-0.04587591371017782,-0.031824347732864744,70.28895842797364,-0.01781704209153481,0.00044925725597866036,0.0012206609038292228
2.13,144.03718491561966,-0.07217179728230229,-0.028574468967739897,70.06374524109437,-0.01776179882556996,-0.0012328366456360886,0.0007120264140939404
2.1350000000000002,145.98826489087557,-0.05715825355796471,-0.06188044150258589,70.12879126468485,-0.018518947668322346,0.00017917323274032113,-0.00015364272140399197
2.14,145.6331798867182,0.04683623113182539,-0.029081553675215272,69.99508681450612,-0.017921252521795477,0.00016758867355599484,-0.0020889817031663712
2.145,147.20277991665202,-0.008614582814462812,0.013257996907159984,69.99185441835469,-0.018854259803863276,-0.00013516343838265022,0.0016059459367628287
2.15,147.65654842618446,0.010671819469957195,0.02778304643213502,69.96942421317692,-0.019051012189385888,-0.001696352876645708,0.001378936722107352
2.1550000000000002,148.2439731500707,0.0044903709780823465,0.07495190772950287,69.88004224141503,-0.019672370972234034,-0.0003480797290184895,0.0008142890945163806
2.16,149.04529403178054,-0.03913749576882212,-0.012885116315055919,69.90048298760485,-0.01896321230536555,0.0011379623137334916,0.001098480780229926
2.165,150.24319985857224,0.03815002281365895,0.07110668769628554,69.78686669990269,-0.01915892932007107,0.00039661112982506005,-0.00027377915816250787
2.17,149.9809505206013,0.003846151370314365,0.042713577631881605,69.80178963036332,-0.018624395092396908,-0.0029497360163424093,-0.00048224480886617136
2.1750000000000003,151.39787866447415,0.009044558217136366,-0.058309044736845804,69.84963115858595,-0.020090838372738545,-0.0007431661852671618,0.0011322199923646315
2.18,152.7841344674044,0.048877262666413006,-0.062041396635675566,69.70000132931706,-0.02060581178078335,0.0009405769408519002,-0.00010371393220793845
2.185,153.44165574548157,-0.09757265589522711,0.09783102515272814,69.5732256565521,-0.01808516708548825,-0.00038866300471391917,-0.00010256606444750718
2.19,153.55109576163935,-0.08791869726066102,0.0030132156389301975,69.51519246097332,-0.01843192706746959,-0.0012498596753605191,-0.00047783182016815893
2.195,153.6995868219852,0.06759470820906456,-0.01484378933381455,69.55855697330328,-0.01833119386315338,1.4527848035158716e-05,0.0009447006782815362
2.2,154.29798464073906,0.0696635646091988,0.08005001025472794,69.53230993165045,-0.018983267715287723,0.0010982798075722714,0.00025004748188185645
2.205,156.42430608430692,-0.006652804213861771,-0.010788943271317415,69.55294670635033,-0.01717787020324044,-0.00038440807931475245,0.0011128634567714327
2.21,156.66177843851202,-0.01094502638227807,0.017786818778321493,69.429908977152,-0.017647264913360022,0.0009964911464389456,-0.00031976450189539763
2.215,156.2395677036729,-0.06349545086070946,-0.06237697469032337,69.44177135497247,-0.01694648142823264,-0.0015356597685768547,0.0008140349252943819
2.22,158.58252329735913,-0.058439236983857584,0.05743217007470257,69.38450894700429,-0.015556092859472086,0.0007592027510693329,0.00015492544724769242
2.225,158.8195179578889,-0.0787161060327789,0.11141847708603536,69.31487315854308,-0.01756390955513506,-0.001104244713615125,-0.0006887321085826465
2.23,159.31780554146175,-0.0218593992186805,0.07352006792188716,69.3244984655274,-0.016007549668080056,0.0002595481036562914,-0.0011065424651958578
2.235,160.20969421050052,-0.05740142911093167,0.03962130785575717,69.31703610630979,-0.017566856233934985,0.0009156045358320345,0.0005798478020209528
2.24,160.01694334875467,0.030167025079332718,0.013712833339967982,69.11343649459242,-0.0160970963452152,-0.0007307321255422001,0.000965389689396916
2.245,161.1484200428282,0.029373161014910554,0.05888091569771335,69.1934381484887,-0.016927451973814883,0.0008776466499089445,0.001190856363300788
2.25,161.746245852283,-0.03603983269079508,0.023124442206576792,69.02644397856483,-0.014451935442835928,-0.0008818471692008645,0.0006111530260104673
2.255,162.77848569115358,-0.04805488667521131,0.040391208441461525,69.02222140502802,-0.016614060705620333,3.231514697994291e-05,0.001951268464209139
2.2600000000000002,163.00248604748785,0.08025226598177669,0.038474923067669,69.08340603490547,-0.014372948292248633,0.00026596624092964035,0.0003649905624545603
2.265,163.82361642453762,-0.046099456846241595,-0.012887768984401478,68.94494813191348,-0.015632410352381672,-0.00024783051207520233,-9.618520199644487e-05
2.27,165.28128436000068,-0.047086607117938564,0.07738204494824016,68.93389318689248,-0.014893943983502437,0.0021758513864690468,-0.000816334045026814
2.275,164.79397632473794,-0.004850051510092938,0.10888881665732768,68.87190619566906,-0.014082733559202757,-0.001984225140270359,0.000455072182864177
2.2800000000000002,166.43041532937514,-0.017724565002547786,0.05959449877381097,68.91774500531605,-0.014703504752687793,0.0022678344104791505,0.0005137681667632701
2.285,166.75704005612673,-0.03519104596754144,0.14455537080182965,68.77220486797212,-0.013527937018511758,0.00013047874174017677,0.0014130791034848533
2.29,167.66867499878765,-0.08370354653696487,-0.0044948026580630615,68.78099612669044,-0.013093251795086473,0.00028451688380927876,-0.00043387281413049427
2.295,168.62899343613466,-0.012841078225175925,0.037915016388059455,68.72632610484727,-0.012067660835353457,-0.0012495226446794115,-0.0004146847844126675
2.3000000000000003,168.42700847108864,0.002891262078677374,-0.010173757454223886,68.74599829972702,-0.011977211202999513,-0.000280250081515021,0.0014321490819867372
2.305,169.86032511113027,0.04316304167833904,0.062001204200770835,68.59354165520344,-0.01193321700385709,-0.0007149015224680434,-0.0005802210591815092
2.31,170.25806452183514,0.028207275588006387,0.05197552552351002,68.57381958786434,-0.010512990156994162,-0.00041416100210960635,-0.0002783676999527142
2.315,171.4232415411288,-0.12163463580622558,0.18214621854973667,68.5886415216596,-0.01045504866594723,-0.0015472128830038233,-0.0010677027163776443
2.32,171.77782670896983,0.0025650581217306623,-0.0020618686381441015,68.51279659619291,-0.009086447463639518,0.0006791233885215937,0.0006657216992354273
2.325,173.02682442483285,-0.07324751672410765,0.07535673098536898,68.4781542369014,-0.008834692571752439,-0.000773574709256672,-0.0010375048265635453
2.33,173.58266558101263,-0.015919790698983683,0.10266435007596657,68.4100447442188,-0.009889475310786927,-1.1327730850168736e-05,-8.673729229783666e-05
2.335,173.0289274559232,0.09317416502374429,0.04872842409892711,68.35491164871262,-0.009313270486431652,0.0015847356820413118,0.00010377458870015552
2.34,176.0456778723839,0.06771379955224152,0.01054884356078769,68.37190453608471,-0.008589742241098451,0.00016702978679149233,0.0007003851021278627
2.345,175.29971553149312,-0.007506850341824075,0.06355783071926929,68.27205163730062,-0.007934968878367935,0.0012846790620679436,0.0001859974754256342
2.35,176.61828167368463,-0.01175519799491098,-0.057260617902073305,68.19765058619012,-0.006468097436951744,0.00019153898718596643,-0.0011847061350769854
2.355,177.89897266618576,-0.03635831427924321,0.02344035617103131,68.13392964334174,-0.006124347116611141,0.0004679790081231477,-0.0015552038787381402
2.36,177.97745171637288,-0.023919250086387775,0.1199190827940755,68.15912284093612,-0.0066073568842664855,0.00042735985925663035,-0.000677765179586806
2.365,178.68378296374456,0.06833079749197703,0.15461577387131334,68.09740443640023,-0.007248062060672451,-0.0004078052348314643,0.0003283544268515319
2.37,179.65139952322494,-0.03774250137504276,0.09089262956495886,68.01310488909358,-0.0054973765041519945,-0.0010964390437217205,-0.0013486515173687034
2.375,179.68235852333308,-0.014813782145515297,0.03908347738656064,68.10433470532283,-0.00409858849365559,-3.95083444239374e-05,-0.0019423043363667946
2.38,181.6709753231691,0.04909498542824594,-0.06550418255167297,67.93218832358528,-0.0036790155468596295,0.0009144739218393483,3.6262061476218967e-06
2.3850000000000002,181.5050253089766,-0.04714258850567165,-0.010923031214001719,67.86718048948401,-0.002321954730653763,0.0022836054870787577,0.00038099613880336776
2.39,182.5506028924152,-0.042115607332245175,-0.007288952763546325,67.90136156210713,-0.0035884888916690094,-0.0013606539333454396,-8.092603652738769e-05
2.395,183.18108126432244,-0.03294858749125943,0.12476620055464305,67.90075124596639,-0.004188821957287638,0.0003568182092874159,-0.001093653368253608
2.4,183.70487387584978,0.011236532665242428,0.16122052250991842,67.76152542934527,-0.0034427610430754685,-0.0020759025604732877,-0.0018494058929115725
2.4050000000000002,184.61361326961372,0.0500672536241,0.023241765340077172,67.8193971950593,0.0003977874473407145,-0.0004728655959439568,0.0002760803769278657
2.41,185.3203848876271,0.10984764947162531,0.022742489634362324,67.7160659135992,-0.0001732687462022112,0.001506210722986271,0.0004832531717661458
2.415,187.28892487743582,0.047010566681266436,0.13406422929072515,67.61651022652863,-0.0008720628038480103,0.0008294686026393393,0.0008184828207339712
2.42,185.78558828604824,-0.04688270229785804,0.0914148797209707,67.66349381206952,0.002330732021893916,3.4536673151445646e-05,0.0007294766271085013
2.4250000000000003,188.6462044921495,-0.08746644577419906,-0.006803629155095144,67.51049201786073,-0.0008839944119671136,-0.0003564769015930464,-0.0008973609555660307
2.43,188.26802575329955,-0.046346316269177706,0.0771122471046542,67.4945954610841,0.001835228537137358,0.001547713917338057,0.0014110103194232423
2.435,189.27544222234965,-0.045060601754497526,-0.0035486380770775455,67.42087071379052,0.0012712710348388228,0.0006181677818557391,0.0010589021423969586
2.44,189.82872704788178,-0.052328524278978515,0.016453763894907145,67.41346172141779,0.0002938200398204026,-0.001338294448869057,-0.0013701254465728642
2.445,190.92413646755483,-0.012009505336377922,0.06773330525635482,67.41085939123876,-0.00022729681708789722,0.00131965526054026,-0.0007266649179466425
2.45,192.55223701502837,-0.07276190510594768,0.09307982625487962,67.47565399731243,0.0009972725636561207,0.0007824008680252154,0.000519869330809363
2.455,192.74196083149255,-0.002971660598345957,-0.04387938248682719,67.39764861913505,0.0005105933841870998,0.00041044963523261045,-0.0013772255729764071
2.46,192.89246706654242,-0.010075343272108767,0.08548936003360569,67.27911858531652,0.0009739715410181434,-0.0020885175371144478,-0.000763563379927028
2.465,192.77818397560875,-0.0338644073926118,0.08292835295382511,67.15182394279067,0.0029682672181202017,7.888932800228551e-05,0.0010315526755309437
2.47,194.08715678936403,-0.037293439578609644,-0.07227695959704313,67.21686625834752,0.003352640803157497,-0.001644092860649259,-0.0009984403352401622
2.475,195.0900048658381,0.047525225797557524,-0.06182805389026323,67.06841821988328,0.002795405788949882,-0.0023228950279634343,-0.000243617451769363
2.48,196.2530006667537,-0.041147007143158054,-0.0032556794080618803,67.18727545156757,0.001770146525088863,-0.0007285598398994065,0.0006887411047822313
2.485,197.3250030379136,0.07763135717379976,-0.011797697712216872,67.06447961686851,0.002120514715502579,0.0014402458323112292,0.001160545697477047
2.49,197.10401678180742,0.07943933924604311,0.003460658170378947,67.00087682931577,0.003996292638580864,0.00059537475946827,-0.0007547153402196072
2.495,198.59318176448383,-0.047937832022146284,-0.027949755315601413,66.98170459662266,0.0038289956240735376,0.0020052526628367533,-0.0016573720458630346
2.5,199.0077455341309,-0.06560323703530685,-0.007300327349006239,66.943581404979,0.0033643297415028505,-0.0012752962213381566,0.0008548289229091518
2.505,199.75775550713118,0.001543485463305353,-0.011366830019458558,66.7986616003952,0.002207459936098782,-0.0008362315726451464,-0.001193156669262327
2.5100000000000002,200.98149096119414,0.014229539241803802,0.015119955263929955,66.79997586583502,0.0017774960191363266,0.0002863804958854123,-0.0010644097367539392
2.515,201.53183567567805,-0.024345218053204474,-0.003984263152935881,66.75954836594184,0.0015322065411236974,-0.001836780006897191,7.441709887507854e-05
2.52,202.10897041150562,-0.052810850526015474,-0.11280163837960842,66.71530509640493,0.002100034218147977,0.0008009465865924171,0.0004879215062310238
2.525,202.78106957719805,-0.07423207348502985,0.0005115800081716745,66.60720822099093,0.001955058226205438,0.0003619054094717462,-0.0001017233241306158
2.5300000000000002,203.69213478517244,0.0333974674467461,-0.02617086028648004,66.6074585508714,0.0026994430958544677,0.001970871652313322,0.0003219013962558949
2.535,205.4368426364666,-0.10628522467649201,-0.07265942025108423,66.39932460310361,0.0033445996504992866,0.0001321613142553722,0.0011097949976567325
2.54,205.7722895285857,-0.1629361563418284,-0.053248809841199604,66.24977212498304,0.0030006231301145194,-0.0017050388501263962,-0.0018144261410731795
2.545,207.77667584608176,-0.11442451337767527,-0.060659757522178254,66.29323858162108,0.0019474937289321623,0.0002673722516745152,-0.00040968773914360754
2.5500000000000003,207.6967128679744,-0.051348456337698765,0.0035044711653685716,66.21414254101171,0.002839614298515345,-2.7110696506821175e-05,-0.0010720611174342475
2.555,208.1186070123025,-0.038495302169830034,-0.036014111810611996,66.0708924926115,0.00112813801720123,-0.0002228859732673372,0.0013343403047970741
2.56,209.19239414163997,-0.0007862280651927765,-0.07067226913734528,66.05316516695845,0.002822420398310678,0.0008043520080917139,0.00047534764827307475
2.565,209.69102885218604,0.055374607951712215,-0.0285260551115118,65.94163336419874,0.0030856670798386455,-0.0002990193312018081,-0.0012539210486624643
2.57,210.0930172217537,-0.03877832040027672,-0.06539798065879823,65.87566242274362,-0.0003876702232154083,7.450396598163805e-05,0.0014228290524312128
2.575,211.68219533463798,-0.019581725694528603,-0.029654560213648172,65.86746141754142,-0.0003458515954609684,-0.000598207783064984,0.00023481169045110436
2.58,211.7293501871829,0.053607585297469854,-0.07548567971348555,65.7452088347651,-0.000473956657549356,-0.001049245082811021,-0.0010925916500817015
2.585,213.12029349870798,0.06311545725692591,-0.09169678440850204,65.70964936225562,-0.0010034260293114961,0.0004854249532820838,-0.000506636305773176
2.59,214.69237544768913,-0.05237622709087596,-0.09233548441105638,65.68385037003796,-0.0010373006546972072,0.0022151139283727007,-0.0021927777015230505
2.595,214.51027191892985,0.004707022864714475,-0.0475913269441577,65.53333187572518,-0.0005999670984280104,0.00014110181780722377,0.00024507762519125474
2.6,216.43200932941033,0.037686382885372835,-0.047354859342910866,65.44592845070358,0.0003162235207404047,0.002352647785355715,-0.0006749419442281509
2.605,216.33960692220268,0.04892389830434676,-0.02462261364171299,65.4432252079196,-0.0003757049001255647,0.0005119482593723681,-0.00038077249678912495
2.61,216.93967580800933,-0.03612817996747576,-0.09833629587485382,65.35049471529511,-0.001631154617618484,-0.0013750406246567505,0.00027065369573972303
2.615,218.98445329256177,0.008651305428671582,-0.03330897121925688,65.30939662825469,-0.002511279361202252,-0.00018595681566968423,0.0002301617446256664
2.62,219.89887475341382,-0.03888993306134757,-0.009259899443491926,65.21125257977143,-0.0019317042888498948,-0.000709987298580972,-0.0006507823087237907
2.625,219.00763226818398,-0.055644248781404386,-0.04636075066126423,65.09116223461577,-0.0030089152818831223,-0.0022477681850645863,-0.00037228622008389235
2.63,219.60399534696134,0.03967131728833467,-0.08286803774168824,65.01228485318956,-0.003612536553997647,0.0006956866955165817,0.0016381271361073518
2.6350000000000002,221.00503655970144,-0.030895907301098566,-0.08355264313839766,65.06239307609508,-0.0031837505471871298,-0.0005656087569514146,0.0015244378180405715
2.64,221.59403500497615,0.053910433232116806,-0.08478521677810999,64.88653915767287,-0.003413513328201737,-0.0013742842518149954,1.0046420482393512e-05
2.645,223.35274927871282,-0.0028136426445373366,-0.10615619880857213,64.84125605169078,-0.00491402667298062,-0.0004452081888864068,-0.0019720412099411503
2.65,223.87944560006187,0.01713791463519022,-0.07023401128875728,64.78865799990463,-0.005046754199966936,0.0005803187191070066,-0.00128840324309666
2.6550000000000002,224.10511436134425,-0.04966763687840958,-0.03847553901170579,64.78184437017048,-0.005276447718635858,-0.0010745044343493085,0.0014353721371248643
2.66,225.41161710918522,0.00793620020792479,-0.08732184649679078,64.56662936303178,-0.007426254162411495,-0.0009114801410290126,0.0016844137030043072
2.665,225.78863735612498,-0.046567984164154114,0.021701154233886966,64.54397956649419,-0.006577454537115036,1.5715916321475207e-05,-0.0007654036409092765
2.67,227.16463946173116,-0.018338984254445457,-0.06677583336520838,64.49908971547659,-0.008601643252060486,4.451790830033717e-06,0.0006888454040931758
2.6750000000000003,228.21257882834996,-0.0872700992634291,-0.05059776912977484,64.32423534683689,-0.009432045940749683,-0.0011449802743652205,-9.689741373007669e-06
2.68,228.44397514346815,-0.10195493988107633,-0.0430357180201365,64.31686622404666,-0.008149169704381372,0.0006751699472555602,-0.0010849092723062722
2.685,229.45253440871375,-0.008622348190246595,0.0010396966217323667,64.28236028374324,-0.007293072810725631,-0.00040051838251205425,-0.0007653020495539446
2.69,230.03757741218686,0.0005100352876412258,-0.046094267271285655,64.1124096759897,-0.007615112240258221,0.00030080835108749313,0.0006776027848139444
2.695,232.1792156284053,0.03158882770771656,-0.045445456757093605,64.03712693507958,-0.009244334798625369,-0.000841815164635324,0.0010191544756392127
2.7,232.46474763306537,-0.04567892868832421,-0.17289948824878484,64.02199388314357,-0.009911737316871054,0.0014930555499347842,0.0004221348004157112
2.705,232.95533958996336,0.010969236466453754,-0.042916463061414084,64.0082322314468,-0.009294660249225548,-0.00013501787247747606,-0.0011051704225375372
2.71,234.21328210293095,0.01693089689287548,-0.06238636945252271,63.85050421667113,-0.00863907837751921,0.002359822513398074,-0.0017401199498247447
2.715,235.0766317826339,0.03916613871123218,-0.05402619308240014,63.785207725346034,-0.010698151454260686,-0.0003596187419400686,0.0003160551352987989
2.72,235.0271798567249,-0.04497891933853816,-0.12881867771282407,63.705755585180604,-0.010999333890395497,0.0003359041113786854,0.0006416584644167054
2.725,236.64086848001514,-0.06420388851017456,-0.008425727161389493,63.65342209116569,-0.012016874095425548,0.00023868839023414554,0.0017590493618229825
2.73,237.1377710446617,-0.04717263444440918,-0.031107548031136113,63.591723107484775,-0.010629802093792554,-0.0002803935769434444,7.719240476051016e-05
2.735,238.0734618878608,-0.04356858674673214,-0.15471823498741255,63.55536211723955,-0.011269043726436105,0.0006035193348825404,-0.0003525293927208996
2.74,238.62041710852543,0.010035808316512133,-0.061927257845115914,63.41700449777192,-0.01063419703027085,-0.0012988470714642678,0.0008415773979643434
2.745,240.0716089707594,-0.02496107410295123,-0.06277583474926235,63.3176945625039,-0.011263228839097817,-0.0004455139827266357,0.001778755265087619
2.75,240.57821095705012,-0.0976036099982617,-0.1215460144681994,63.397231517828025,-0.013308123509963207,-0.0003983740374562307,-0.002098333371180914
2.755,241.91933739517617,0.08602340018719161,-0.1001776114587431,63.2048278547259,-0.012514548210298342,0.001029898785206334,0.0009766434114408164
2.7600000000000002,243.26962633390906,-0.030862418818309062,-0.004328181331515468,63.13774159376,-0.013736730174547698,-0.00108946686653406,0.0006647665947039533
2.765,243.71520707515802,-0.009970762857639447,-0.054328360536069265,63.02959489892044,-0.012913040559414606,0.00019197641635074555,-0.0005439447856318807
2.77,244.0467668118462,-0.050269579048531354,-0.06419071846455787,62.98967924632367,-0.015032812101802346,0.0012819424563336812,-0.0010256824060722515
2.775,245.15400908865155,-0.03891669075542121,0.02745933255138376,62.89794132218697,-0.013207607070407409,0.0015286676533125556,0.002198295071764239
2.7800000000000002,245.77873002216984,-0.07830807254651846,-0.049577080675286975,62.811624332331576,-0.014508605004468302,-0.0002118345267894483,0.0013930452865029259
2.785,246.6533510095732,-0.011432549690914862,0.0623368796459864,62.86123546748469,-0.015184322875989541,0.0011206963638473492,0.0005938348551345564
2.79,247.00346156200598,0.03460341716717619,0.1060691606933889,62.66014843622493,-0.011419092022535418,-0.002408993711385106,-0.0004395908298685493
2.795,248.82245763354106,-0.043376482959810725,-0.01757794683764749,62.586400724389634,-0.013765900049081042,-0.00024268167133104044,0.00042086518710688676
2.8000000000000003,249.28258831251068,0.016696041694000782,-0.007077992516351073,62.4147100643239,-0.01606891084528265,0.0010592218253257946,0.00012284876179008132
2.805,249.74627007600236,-0.06222613642211487,-0.06296299368817491,62.38398784977069,-0.014454645727932655,-1.4552320332148074e-05,0.0015318370601699524
2.81,252.00948880904454,-0.11980573214675545,-0.054006672620199765,62.358967433943285,-0.013445020960824628,-0.0003312456214414172,-0.0013451735957357186
2.815,252.6449925211726,-0.026212302603861128,0.02720798452728715,62.18651361793051,-0.01294799601687201,0.000495130671534682,0.001006729933198445
2.82,253.17860015410784,-0.026485293712208546,-0.01590628416420088,62.196275049297746,-0.012257569792290975,0.0017439851686752814,0.0010149161563563051
2.825,254.85557142669884,-0.03908339860372173,-0.04359137829111114,62.15197420942645,-0.0138255484777263,-0.0011216162081391543,0.0007167250899702232
2.83,255.25952379839157,0.03992777013501091,0.032597931481055435,62.05236861483339,-0.015817297257693874,0.0015208454553414517,0.0007301651202142851
2.835,255.18810069909182,-0.02002296190837939,-0.03738973295329399,61.985311760360446,-0.013947628527836204,0.001977432960323909,0.00011906190080935843
2.84,256.2519363506859,0.08655627224292543,0.03796744554647895,61.97358628704844,-0.013392823384615355,0.00024378935548898542,0.0006382539910800255
2.845,257.22087797368215,0.05508877075291865,0.003936169698529286,61.9700942541501,-0.013213960137098822,-0.0007613315871184529,-0.000514239534214396
2.85,258.28415414481253,-0.08209261245638816,-0.02107340115141149,61.87514729236468,-0.013231459880374932,-0.0008267540634081817,0.001680201904393159
2.855,258.46656992449874,0.032199280249105344,0.20653159147760333,61.71425241462668,-0.01358142498734491,0.0010830735030976347,0.0019823087276273203
2.86,259.9852855632048,-0.00038936735587398116,0.014457219265421175,61.7637051264487,-0.01224822740101747,-5.391471487807664e-05,0.0012002329682309837
2.865,260.5215263931194,-0.11800682574089509,0.03223064974964074,61.58342416001121,-0.010913462948662368,-0.0002329700744374693,-0.00017744997383994826
2.87,261.59836387503486,-0.06541880499930292,0.07955313099581593,61.48597082259268,-0.012663576456074948,-0.0006072931645665876,0.0002787940908429575
2.875,262.6615525505546,-0.10810745137085416,-0.004670808058692154,61.41140855116092,-0.012564014286898913,0.0008749102357644966,-0.0006961691987528437
2.88,262.84073703273424,0.049475917621070425,0.08002813293446936,61.37258689588844,-0.01078686026641463,-0.00038784109346710123,0.00043783580066408036
2.8850000000000002,263.6200107057975,-0.07870413373176383,0.08580035328499662,61.2289911270934,-0.01107426691815859,7.409372736474798e-05,0.0006279139458639133
2.89,265.06964146535324,-0.06475558809188943,-0.016688516570239578,61.169186079756265,-0.01201273113190639,-0.00016191647072734197,-0.0006305122208800348
2.895,266.71092394369595,-0.019107755680202825,0.1527610837813326,61.1190425321,-0.008378295158717318,0.00019574281505036782,9.946435992862358e-05
2.9,266.92210022264726,0.03552621010403619,0.0458958747870673,61.05928660291201,-0.011927527370046412,0.00038467345938287455,-0.001087352648912597
2.9050000000000002,268.0935183003159,-0.06437377176610677,0.03826152775929229,60.90121012743384,-0.010144469258095251,-0.0006450870927602961,0.0023683864333387513
2.91,269.49772268508684,0.0791571937301455,0.0977276328154087,60.81761618021014,-0.008562777035997008,0.0002273132272005548,0.0004401138393311163
2.915,270.51682339051035,-0.0845350977968303,0.0674519636337434,60.85096178984051,-0.009102762147011435,0.0005063178398548296,0.0007506260012248146
2.92,271.0176880535605,-0.057589082516940296,0.04472075866839839,60.75074977537726,-0.009646593768328474,-0.0007296805781253099,-0.0006180174851364104
2.9250000000000003,271.6903925162823,-0.01358426536613801,0.008966551305871512,60.72652187450015,-0.008706318269565761,0.00041469428664611153,0.0015796699651985618
2.93,272.2938761676082,0.0415467415425385,0.10921721293458839,60.5894855839746,-0.007649442803355662,0.000687640337326101,-0.00048171475820415636
2.935,273.74879424485613,-0.038310081567071774,0.008638004597979199,60.50601572618374,-0.007519800352066955,-0.0006308820492023583,0.0004597831616585982
2.94,274.461340530219,-0.06640752124686956,0.017506420102090428,60.421683047232996,-0.008349450778520008,-0.0003557949483905552,0.0011721861398340076
2.945,274.4940156966766,-0.05905414069405377,0.09039728374205122,60.38013129222311,-0.007195017536338996,-0.0011413582355691418,-0.0002929258991876153
2.95,277.20847558583495,-0.01887143078538921,0.07232589404720244,60.363016584628895,-0.005583830188025695,0.0005498534313357437,0.00018115445275540163
2.955,276.6448426012473,-0.06075813869997779,-0.005874867669889303,60.2480303414277,-0.005306268155187785,0.0021198710203983186,-1.4856917916057974e-05
2.96,277.65242059594374,0.017512204074768133,0.044456806807417364,60.176305986100985,-0.003660020801947602,-6.24721583608742e-05,0.00020442760513323494
2.965,278.398969667898,0.018256730651622796,0.142133032416905,60.00592848209152,-0.0065083527894316245,-0.002068451472444638,-0.0006835171156465319
2.97,279.42176225652776,-0.013116805197113472,-0.00847448236601591,59.989730438688476,-0.005421264221864147,0.00017135164574002125,0.0003536078744154662
2.975,281.40164475243193,-0.08236750793699175,0.09279764266716087,59.82329399788777,-0.004160913850352237,-0.0010136220509097756,0.0015008463829053547
2.98,281.1839235815952,-0.03987981029526121,0.0741085213774543,59.872892523967145,-0.004653042559044505,0.001051403265614865,-0.0008735312293429579
2.985,281.4880477810752,-0.08664210862316588,0.06969477503691626,59.674685726960924,-0.0014857224064054571,-0.0025292767461224256,-0.000535454489816465
2.99,283.1713668973393,-0.06051828570326053,0.044221721510059764,59.66489125412893,-0.0023056947266856488,0.0010945831330093807,0.00022279022464667976
2.995,284.1335086655087,0.019420060457142743,-0.02385596078119285,59.641595534700244,-0.0011617354092733469,0.0003721676334465134,-0.0011520726910191023
3.0,285.7827513952082,-0.002429867371564493,0.10989120281399264,59.53907959848943,-0.001995855820586381,-0.002430564158316117,6.853415562832944e-05
3.005,285.40343178618866,-0.03027331015720332,0.09435838010595629,59.5522586228863,-0.002025946148143924,0.00017025149976802667,-0.0006656548208304595
3.0100000000000002,288.01907419536514,-0.12973064529412004,0.0756625277997395,59.42908032895467,-0.0014633631802522982,-0.0015430351603622416,3.7781908141883426e-05
3.015,288.4469574052836,-0.043799756089252934,0.06762092503127815,59.45811998547589,-0.002099370888109015,-0.0008514444209438612,-0.0017280120327387296
3.02,289.2893245636704,0.0007809049804069802,0.11450644939293947,59.3277968261628,-0.0006175350198265488,0.0016588473438620519,0.0006229381764106312
3.025,290.02403345186224,-0.07621345744674891,0.11305535621371184,59.25348112505794,-0.0015473603097902482,-0.0014592277306347832,-0.0001938392199614785
3.0300000000000002,290.7379313431248,0.007689246160666276,0.012017177182355877,59.29899462104707,7.502016049999608e-05,-0.0008101058287122289,-0.002264037041157501
3.035,291.89779511054826,0.05408970907808699,0.03619709052107996,59.29494215591893,7.238216876817192e-06,0.0004398060614395152,-0.0006036917786646971
3.04,291.62694790653126,-0.020007829903794,-0.0005463939285575425,59.24940783414022,-0.0005482063616142252,0.0008164770833958215,-0.00036169193330820386
3.045,294.0034861299721,-0.034536809460808796,-0.08260587958900067,59.2241509147282,-0.0002906018079707613,-0.0027650577322188455,0.0014482467219663882
3.0500000000000003,294.59124840006984,-0.047959956047871885,-0.006857025827070661,59.13237362558076,0.0014515997723587991,-0.001120527047124523,0.0005389488898706866
3.055,295.076682019217,0.008556894970420299,0.10320005635832816,59.152353741463244,-0.0006477366141397617,-0.0020940115113669165,0.0005429378516778381
3.06,297.2647640019751,-0.004957880489325208,-0.006951874881009033,59.073469915587026,-0.00014779103009435537,-0.002954441894185107,-3.523414934333228e-05
3.065,297.8990946135841,0.023234940730421875,0.008179538088719202,59.112245554922794,0.0004425017771362964,-0.0002820868478525809,0.000591596702770658
3.0700000000000003,297.7330451666027,-0.1431417788546711,0.054692442928169285,59.099132767412236,-0.0010685196378881804,-0.0001334325935022356,-0.00024447518511383124
3.075,299.7774388394971,-0.05945062897523486,-0.011811728749773308,59.06177680746141,0.00021295935404299466,0.00011132785458958385,0.0007852438283857058
3.08,300.1121160114943,-0.0963516793234525,0.14098798404208038,58.98667427616381,0.0005193505314556503,0.0006803427122436952,0.0007987929654455019
3.085,301.03714034768825,-0.01959114171628149,0.12728443669060635,58.91410032541205,0.00032936770068875296,0.0011257977055826522,0.0012552588120427564
3.09,302.20566330064116,0.009459102256816933,-0.046414171029482906,58.91947285906362,-0.001478675568437715,0.0008590395828644558,-4.9558167954869605e-05
3.095,302.47875370409025,0.04927825835597632,0.006454040536857396,58.904029088525576,0.001317350447936148,-0.0006043011269249179,0.0009028335693012402
3.1,303.93034166322167,0.06441345009505657,0.0334779462026619,58.84180775660475,0.001590269230723966,0.0004720781863386458,0.0011753486956166215
3.105,305.08597413740347,-0.04922897966802406,0.013029455361483118,58.827811604385246,-0.0005051742675904855,-8.783171245225724e-05,-0.0007127855681367913
3.11,305.1902393112964,-0.07197731979699676,-0.028570365630755913,58.83240923814127,-0.001246842597557476,-0.0013569121168133702,0.0001469118680610985
3.115,306.5096448412562,-0.019591399112924106,-0.012685669868573377,58.76610738504067,0.0015533767567560302,-0.0004212875019920807,-0.0011343525273008735
3.12,307.4725229834868,0.03251743646410496,-0.02580232403099235,58.75690978229569,0.00042325694974838226,0.00020030093084129547,0.0016609085962394781
3.125,308.47543558678916,-0.0494449547416673,-0.12178353118510203,58.66479233718974,-0.0004234720843866236,-0.0013389285334181398,0.00030605415374253313
3.13,309.3518569868117,-0.05519940477847318,-0.007424437741090542,58.646079862433965,0.00034421479132129947,-0.0018717140843413414,-6.254716562684023e-06
3.1350000000000002,310.232677510228,0.003167600634660296,-0.03828176984878273,58.65125372123204,0.0008007045280249325,-0.0023634339938901406,-0.0006505912580804371
3.14,311.5944447929384,0.007494365892549943,0.02116183304928352,58.55923622728316,-3.9017446191584734e-05,-0.0006629759111880299,-0.0025964977212451913
3.145,312.10087848255694,-0.06566068313361909,0.033452116807803266,58.47403228742103,0.0006022508757137247,-0.002284959800783578,0.0006359151630630976
3.15,313.50991026291564,-0.07105025380778655,-0.09674811036360795,58.482254270903,-0.0004800795067694101,8.433601217268746e-05,0.0012904217346718515
3.1550000000000002,314.0922614335415,-0.10834187317836173,-0.05573594142581243,58.47851451608463,-0.0006240672636705362,0.000961847398032516,-0.0003049466380338632
3.16,316.10862503702134,-0.03514186871086179,-0.04653887746016889,58.42033678057863,-0.0019151966668876635,0.001670429734659423,-0.0012609471782210752
3.165,316.6121049603348,0.06268781925749609,-0.045050070597655985,58.3227064804666,-0.0015416699266527093,0.0019395764786986256,0.0009446519885613219
3.17,316.52241780503346,-0.0021130809375809745,0.058632256103471364,58.31072556788966,0.0018189503973861233,-0.00019447944798167742,-0.0011203352407076121
3.1750000000000003,317.5078175340386,-0.04323678790575809,-0.11361490108288408,58.28640580034587,-0.003060780749698338,0.0003607601976302469,-0.001008531311756647
3.18,318.47419539626435,-0.033028037944898614,0.01926316931303753,58.27534526217767,-0.0018693395564205473,-0.00111329147806642,0.001014831578943815
3.185,320.2081903240414,-0.05914979807414878,0.005010336038144492,58.302744306703865,-0.0006209756340008667,-0.0003786922233055207,0.000816353432554057
3.19,321.6246277352442,-0.006276550573817747,-0.14075536017474832,58.191787175417666,-0.0034489975735828167,0.0014181280807901082,-8.389924581080618e-05
3.1950000000000003,323.1009212816001,0.07716058768968409,-0.11548924414624613,58.171261879734544,-0.0023479159864019184,-0.0012406375977743907,-0.0009141604896342597
3.2,323.10244984922895,0.0267368055205264,-0.02803485365441353,58.07154387726197,-0.0027512224631800492,0.00025238432878100093,0.0003479582735298318
3.205,323.91304702934815,-0.037219081999254,-0.07181591696205691,58.13393664792348,-0.004549288484297664,0.0009031018227688085,0.0005096467252121181
3.21,325.2981479385265,0.030560618633965288,0.013169771406947924,58.03138677545088,-0.00426419772555028,-0.0009961898122909777,0.0011704421539206027
3.215,325.77092911533316,-0.0061126478226961704,-0.08652347278588512,58.048473671850715,-0.00407746888866177,-9.991684889704976e-05,-1.1125551059879553e-05
3.22,326.6473746080156,-0.06919319994845888,-0.05010765218729931,58.05158263334002,-0.006070911541331908,0.00011239466455843051,0.0005836316776319025
3.225,328.7773009605919,-0.021781114253469507,-0.05731222590788159,58.09546617785877,-0.005660449032646242,0.0007592521140141849,0.0013582228398113427
3.23,328.5141814601839,0.07581608513694872,-0.027667544374930284,58.06067128961989,-0.006429275214750266,0.0006161271872878876,-0.0012290831227031729
3.235,329.1228657153208,-0.07311850953577823,0.011040581040154575,57.94316188203514,-0.007420937577610673,-0.0014749229881473828,-0.0005480824635214692
3.24,330.30886738360033,0.04185262093942321,-0.07301933404717201,57.99719529709366,-0.0065047662744635365,-0.0014660140839479374,-0.0013790779449451482
3.245,331.759088379609,-0.01131206215195927,-0.11700052153817969,57.86756949672297,-0.005731696784889526,-0.0008410051504436189,-0.002074936178461432
3.25,333.41950327950417,0.06735561756058892,-0.08102118548010098,57.85135669841589,-0.007144284971847589,-0.0007624624794117719,-0.0013704467901176688
3.255,333.81048928490696,-0.042632224754655015,-0.07292263113318438,57.63803380670532,-0.007937613435139658,0.0021436791243161736,-0.0008981213331505818
3.2600000000000002,334.8421628025523,-0.09454946543136745,-0.12496617351627988,57.400362555127806,-0.00657592052336645,0.0006797481799259537,-0.0005237134565961269
3.265,335.5467513287814,-0.03514072125513385,-0.06867175469752884,57.21432574728598,-0.00885947122107514,0.0004545552433648977,0.002211597787742314
3.27,335.8935418613548,-0.007815736128248566,-0.046361580588043495,57.10525249404181,-0.007225174765129664,8.60132366949292e-05,-0.000898474916246436
3.275,337.772673689246,-0.013430867290877866,-0.0753095006004019,56.88979901436613,-0.009152251985207726,-0.0009946950055126009,0.0010747670934171704
3.2800000000000002,339.04868191558364,0.017351539738118264,-0.005682183731803833,56.708979349054594,-0.006609429775378999,5.179729275615945e-05,0.0008936877662957146
3.285,340.1852467328231,0.0223825249703465,-0.006620713136474658,56.46098016129436,-0.007957303718727214,0.0013166892085853166,0.0018273859790322068
3.29,341.4029211766586,-0.011473269014554206,-0.026415224059840134,56.2926376428782,-0.009860801381313417,0.0013484670096028913,-0.001687459287019599
3.295,342.29371698961086,-0.0784345482483979,0.006505800996825455,56.16210080885796,-0.010390237981266596,-0.000589922396935111,-0.0005296102242457364
3.3000000000000003,342.8104716785634,-0.03558503817689025,0.003020532125309623,55.87449064860885,-0.008009807244924273,-0.0007970844455927701,-0.00022864063037636808
3.305,343.0565104503999,-0.018819095890323045,0.006883031167211541,55.687661620749516,-0.010067739927208549,-0.00020785123490884644,-6.915997869771043e-05
3.31,345.0857999149814,-0.03525306481563357,0.09074470051202295,55.60020787139147,-0.010714305506397502,-0.0009314851257157749,-0.00019044333820036443
3.315,346.0712861134073,-0.05028427081070002,-0.0472044137059072,55.33065161555781,-0.010808074221603138,0.0006140183634428527,-0.0013629107402566437
3.3200000000000003,346.2456046575012,-0.03255250500761794,0.037887633946614666,55.115831925728706,-0.01064319746366486,0.001054470100367198,0.000853222409505708
3.325,348.01863234022517,0.09575573920302154,0.008828965055162633,54.979764445671165,-0.011085733262230767,-0.0004909326790142323,-0.000298237476989451
3.33,349.1984700537104,-0.05704511419173172,-0.040190220283115974,54.82408345484405,-0.009997737565586485,0.0005020933099257736,1.8531744305749896e-05
3.335,349.9910070722702,-0.007056035761827634,0.009357809216309387,54.55031264740251,-0.012059071962560064,0.000765124554283065,-0.000615115041081529
3.34,350.3260711857665,-0.0026024906148188268,0.012583138418486432,54.35351036373059,-0.011080706426068938,-0.0005515482562494631,0.0020642401922634627
3.345,352.3572540931238,0.09174874003382101,0.003479732467269618,54.20954410478894,-0.01227709553959647,-0.0017963167602632478,0.0019010689684401565
3.35,353.0457744338837,0.02356773293854049,-0.006789738180972034,54.06975973393056,-0.009737535944516111,0.0007647976427653662,0.000805174560810589
3.355,354.2459968044097,0.058339090881709674,-0.08772328320812817,53.828014001216424,-0.010630075525561371,-0.0006684269604089676,0.0009341167717990601
3.36,354.1374370458495,-0.05859788547746577,0.043518293501053455,53.590767711624615,-0.011811656611647566,-0.0024225314557213048,-0.00011270442887266988
3.365,355.96707553909914,0.01902475183228603,-0.00502397168352634,53.464905793083965,-0.011156285115050865,0.0007492899337044129,0.0010282448980466488
3.37,356.9965801379608,-0.05214325487985978,0.029683704401060725,53.24578142387295,-0.011379789342394534,-0.0015144710339613763,-0.0014124371862578352
3.375,357.0830715718008,0.06626919781365309,-0.04594155941393057,53.013499239306256,-0.011289264788684302,0.001116806050345092,0.00034696141994948205
3.38,359.88164024118464,0.03176830061956791,-0.04200903958578055,52.864041160620836,-0.012410198879428489,0.000469383551810677,0.0006336834171826377
3.3850000000000002,360.37447553036003,0.03050252447324528,0.03824539605795159,52.61926644478351,-0.011309798983398041,9.320867024146086e-05,0.000532681679225815
3.39,360.8363056084386,0.010862969695938862,-0.04542055201713989,52.52107870485253,-0.009861152606517692,-0.00016574319496446736,9.496621880571486e-05
3.395,362.51280088841776,0.0064093655818096215,0.01776398119453394,52.23869903401589,-0.009633764168173001,1.0560983224189817e-05,-0.0010327577425620954
3.4,362.5488946938687,0.06718011418055034,0.0822393032067128,52.10147771609193,-0.008905608937782817,0.0006974800216477282,-0.00045562016192037636
3.4050000000000002,363.98352625502076,-0.017207110316768442,0.02985517808790885,51.96452526908364,-0.010117426177151388,0.0014046474013168606,-0.0004963665889051169
3.41,365.0432587104228,-0.0030690841343170606,0.033692897716070425,51.670144255436455,-0.008175550046709572,-0.000574523918585499,0.0007923420596313689
3.415,366.1878912523491,0.0357804825579126,0.008641646652536947,51.59933962830355,-0.009102620484728121,1.6760779276227337e-05,0.001087885951219608
3.42,367.28955686415634,0.017626285863566286,-0.011956996771445134,51.30342844903277,-0.009237703217525168,-0.0015845431632097449,-0.0004275689821220212
3.4250000000000003,368.48456357580704,-0.010994768917047593,0.05791681407919154,51.145726682559605,-0.008014352007664247,-0.001242665311114155,-0.0007161705113653096
3.43,368.47988663458676,-0.03253588527682143,-0.004596379101134279,50.96707200935828,-0.008201499712225795,0.0012732399665719319,0.0002813511547951803
3.435,370.06925825724215,-0.030909605243093226,0.028054659788505916,50.797900969786824,-0.009470227587830525,0.0006039534184128653,-0.0002468938282569287
3.44,370.567455013494,0.06693266275461325,-0.00994854824537153,50.601676518416134,-0.007072963795707906,-0.0009320549018765005,0.00021852713799595577
3.4450000000000003,372.2299275793583,-0.05878078446642432,0.02115172035392502,50.36764867438332,-0.007628834381983702,0.0003127734270785072,0.0008638125425530315
3.45,373.2315696987113,-0.1339163282158492,0.02006553313178375,50.107046890294086,-0.008910100771271539,-0.00033296659804557657,-0.0012935680329248936
3.455,374.08514455047526,0.013455139878831231,0.06323923395498932,50.02370142472195,-0.007964396146415424,-0.00046441798754417356,0.0008733284151338618
3.46,374.4882856405942,0.02736374741031909,0.047295129370426514,49.80363692926835,-0.005382056992638485,-0.001231142382131307,-0.0004624280105337739
3.465,376.7293359608118,0.01502447680541906,-0.004653933223241938,49.63585416271501,-0.006861737907980428,-0.0023081877622329067,-0.0007563646229549702
3.47,377.26413639975027,0.05082170065206887,0.09908222794902635,49.438336248190446,-0.004265393595336546,0.0021138519125958534,-0.0002903800541631924
3.475,378.8065477189012,-0.07406281327635515,0.013454014472814219,49.26921967829715,-0.005496531673005427,-0.0008445955067624717,0.0006334603491664673
3.48,380.8204777792009,0.004851920296171132,0.04527416957400428,49.00673843507244,-0.004737102281093818,-0.0005375252690134755,0.0008561412250428814
3.485,379.539438396953,-0.04004335293479837,0.11783168320514423,48.82088287015351,-0.00711676173300823,0.00036992112590980905,-0.0007425664353407686
3.49,381.5968663395084,-0.026611374194448565,0.12163131412498263,48.64859117502859,-0.004169470848099974,0.0008340244214962283,-7.529800418657068e-05
3.495,382.65699659033675,-0.06386287253621176,0.10028792514388195,48.40701510661055,-0.003554179489623689,0.0007913090589868382,-0.0003934852195455776
3.5,383.85602911438434,-0.08237781388620433,0.045389643043559434,48.31202148376932,-0.0039466818175386146,-0.00034440528008107465,0.0007303873965160201
3.505,384.7420743876714,-0.08297871546289914,0.012155971892277538,47.98104815614744,-0.0042781667868446865,-0.0001629914626666405,-6.873688642813855e-05
3.5100000000000002,385.99947691111413,-0.08316651092577187,-0.020442660102735696,47.69823089519246,-0.0019616124008021854,0.0002996594032965067,-0.0010172033092196097
3.515,386.21694189876354,-0.01035978392874243,-0.0161097365184125,47.604602355817555,-0.002622292454991015,0.00038986889993037797,-0.00033299028446546905
3.52,386.60867510500753,-0.03377172777259489,-0.012140930620775016,47.27225549866063,-0.003140220463795736,-0.00048484960860732933,0.0006104993323391635
3.525,388.59611276352393,-0.0007883552701164719,0.0878802306417395,47.07000718226965,-0.0014389635659586275,0.0006895562040228199,0.0003726181442414074
3.5300000000000002,389.17605581276376,0.0007555932170602644,0.08741689850903359,46.90734001688921,-0.00014758289273741985,0.0002963205778977158,0.00010898056324861739
3.535,391.11554470616323,-0.03761124932574915,0.031079336413915668,46.60301863213871,-0.0031879211581921974,-0.00039462489365220806,-0.00014747431792867571
3.54,392.8245634582584,0.044049723950127004,-0.0779361138967097,46.50488175633274,-0.0015891026752405796,6.744105768273085e-05,0.00014553989898877953
3.545,392.71454317213596,-0.02256555781367964,-0.06071591305021055,46.148054466974585,-0.0011293076042132675,-0.0009130028729944986,0.0002628474711201381
3.5500000000000003,394.1257599372492,-0.04133361029165124,0.005009443277726063,45.91197571734902,-0.0024520958396529982,-0.0007813947185878794,-0.0002879860448257027
3.555,395.5456771774421,-0.06472247504893634,0.005099094920996021,45.713398777535076,-0.0014879340667389431,-0.0010336135827737189,0.0009800205890616541
3.56,396.5431251001136,-0.048008545892572675,0.07953180337058684,45.503429930927915,-0.0012512016595253989,-0.00020658654404742238,0.0012567316189202595
3.565,397.5065434537411,-0.09878356146891616,-0.00347960795975206,45.25018260004783,-0.0005051706354030093,0.00023371357286762362,-0.001661342556649229
3.5700000000000003,398.6905640817771,0.0028231694467493254,0.11486499028194262,44.9964968327279,-0.00048214022491101574,0.0016499356023482433,0.0013808810633154746
3.575,399.3122562620118,-0.07558078837138316,-0.03800651150703247,44.87487804722419,-0.0015801528709451377,0.0018934737451600412,0.00036790167088179685
3.58,400.83774142654477,-0.08240124255940542,-0.02131168278465511,44.55849914541346,0.000718514311637355,0.002149388192339547,0.00039704648597079254
3.585,401.75960486630254,0.0232072986293393,0.02847325318106671,44.27057499278611,-0.0013054030140039388,-0.0006477474234710598,0.0006295290260308112
3.59,402.4134401803758,-0.09614427231362895,-0.05414972252776194,44.171899992555964,-0.0014319848192901222,0.0006276970955649641,0.00046520235738461356
3.595,403.45171627816705,0.010104141963680226,-0.017019685615149473,43.816686757422175,-0.0010651779154974776,-0.0015945754634971246,0.0009226406243795647
3.6,404.9568244514492,-0.08178096565012175,-0.06578381556735081,43.64036844717674,-0.0018086318718562432,-0.00012945368434063578,-0.0007383367614700301
3.605,405.3771169427829,-0.016767718081011317,0.05568465314688155,43.335536200194554,-0.0006915282332375407,0.00017718734524027767,0.0011324725162308133
3.61,406.82124709864524,-0.04604325850667283,0.08033165954547361,43.10287450259396,-0.0017651092053435897,-0.0003288599036627263,-0.00010299275441518579
3.615,407.75882858559396,-0.002698125380447232,-0.011018839599850313,42.85030161621236,-0.001526114814301012,-0.0005790486506219855,-0.0004092884947622666
3.62,409.6190616268448,0.014640199363405187,-0.045344056846789924,42.69762556808522,-0.0013867739616642775,-0.0007343238410427178,0.0009565642079331457
3.625,409.8595610515505,-0.017528981480441578,-0.050204637848030004,42.501778463776326,-0.0018313982761426523,0.001490428910597562,0.0018845776686044339
3.63,410.56492941618535,-0.05048598425410531,0.01022928540107789,42.13951545720646,-0.0017260441145251406,-0.00010160952015895151,-0.0002789382470384961
3.6350000000000002,412.04557658887614,-0.03769908484224476,-0.04602328900161372,41.90179981341288,-0.0008899984486467041,0.0006737104838785187,0.0006778042449247554
3.64,412.8725749814321,-0.042919156776456385,0.02148815475651761,41.75516054196831,-0.0022608731232959915,-0.000901420368774605,0.0005430358483037285
3.645,414.1621165487635,0.03263369008753927,-0.06272377593348843,41.453335828354945,-0.0010433507994770355,-0.0011088670367343353,-0.0014562187183775849
3.65,414.0835727190863,-0.06580647422496658,-0.0736054795639666,41.307973281240315,-0.0021354963577263253,-0.0005199791020142105,0.00033155639225826775
3.6550000000000002,415.79325450159814,-0.002791545085718758,-0.0904665961533064,40.93835946142304,-0.0009448047085041122,-0.0012860140164864023,-0.0006746620428395235
3.66,417.64785282978625,-0.0010731110725434173,-0.07955130767470922,40.73081628500394,-0.0016089530046110375,0.0009127146154418498,-0.0005608141570748089
3.665,418.3651222595942,-0.02780265496299246,0.017677541719668746,40.46612737236128,-0.002980567642437553,0.0006279042233609708,-0.002488364096076808
3.67,418.4832801405055,-0.040741759325641676,-0.021870405034958844,40.300280790524624,-0.0008308146032612745,0.0021287784650146765,-0.00021240455831660543
3.6750000000000003,420.32615903767805,0.010887570849269761,-0.14538893701399414,40.073477813521826,-0.003340485668706837,0.002066455862110343,0.0006917779391542331
3.68,420.37441989103684,0.05808677120147979,-0.09699667202208359,39.77283588785004,-0.005386812322328247,0.0008764797670828371,-0.0013779619384110375
3.685,422.15328597997336,0.007253890129058194,0.023338819457616143,39.53828854108134,-0.005387801254576802,-0.001181468786169896,-0.0024500639243282656
3.69,423.9300746120223,-0.0958398265262578,-0.12964273983069957,39.35360357848122,-0.004806687003690824,-0.002231811516440572,0.0006768491708389801
3.6950000000000003,424.39929575449594,-0.07231471235323361,0.021632880823027847,39.087495061498835,-0.0026522209131697957,0.000561796808029677,0.0016921038748962333
3.7,425.32271785112033,0.043923973600545195,-0.0693642640839249,38.87660678084973,-0.004221247110486417,0.0017266452354502398,-0.00042085616194745474
3.705,425.8804864924642,0.04958642538744906,-0.12344490597930163,38.692493130544314,-0.0024774129270964023,-0.00030596712042476747,-0.00046929849712410863
3.71,427.7210628737341,0.12975788671151972,-0.06596456560761357,38.42558365816169,-0.00577119873613243,-0.0007727302480326672,-0.00044287439829495035
3.715,428.4137660052709,-0.02788921335581372,-0.025151590712758524,38.130336814955285,-0.00539743334518756,0.0016976167099131687,-0.0005180301306083878
3.72,428.7829785588312,-0.04590911408052212,-0.011336935928734797,37.936741221996385,-0.006376676905884777,-2.956896349208158e-05,0.00027360914870483226
3.725,431.0035102922018,-0.06040098807682398,0.040690847377091645,37.680193395731706,-0.0049899082411136095,0.0003278875960175655,0.0010459154057510607
3.73,431.73133892831345,-0.05457726950463856,-0.007452047377750279,37.38252621399706,-0.004992415855276668,0.0009511915622055741,0.0010486828821907525
3.735,432.71544535963784,-0.021258736019204465,-0.10143277857284984,37.19491949578087,-0.007972113451528045,-0.0020200338683078324,-0.0012603512547282516
3.74,433.9041686347037,0.01783465609664632,-0.10587176154397132,36.979167026639914,-0.006093870624045393,-0.0007102062358822065,0.00023811720757389238
3.745,434.2773512701859,-0.08630828567591907,-0.036439051935469674,36.83159341445624,-0.008230933475137894,-0.0003771853413461943,0.00011769365599973924
3.75,437.6472368452858,-0.025960492896417664,-0.06411366631748162,36.495011089461215,-0.006761569553214254,4.2310217929791786e-05,0.00040165567331658034
3.755,437.52542243675947,0.024345929439302742,-0.05625145294486668,36.444897391723465,-0.007799170609257923,0.0008648716112516146,-0.0017448027618484489
3.7600000000000002,438.30849512281446,0.043777348822608586,-0.043815119072516485,36.52985017942531,-0.009731219363135903,-0.00042990128334574,0.0009652704469374118
3.765,439.90273267870276,0.0017378238418603795,-0.030245695585324195,36.419722267959024,-0.007874147526084747,0.00017495919172746743,-0.0012253619276651772
3.77,440.2256322852118,-0.030844232190144635,-0.053986937584403094,36.320184116749374,-0.007842910848723834,-0.0020616140746320096,-0.0010891111245687794
3.775,441.916933795564,-0.07923901958789634,-0.05057169017920597,36.493598945258846,-0.00579710710382542,-0.0004415624322673686,0.0016661591545014522
3.7800000000000002,442.7592508508493,-0.006254559179456257,-0.04857376798901829,36.313334512865644,-0.009076402419067403,0.0006465399607697387,-0.0005711269855721424
3.785,444.43594745619345,0.055762489300354934,0.06221177312131844,36.280513650315655,-0.0099865027062667,0.001221576104362858,0.0009166526035180583
3.79,445.3648274875246,-0.002256830371725003,-0.05209023002793106,36.40216690590534,-0.007187537366357046,-0.0006647921333332338,0.0013645137302368707
3.795,445.69892537052726,0.011439317408081236,0.02222024034330935,36.36283109844726,-0.00895930109664576,0.0002137217537219155,0.0003845641784453016
3.8000000000000003,448.0696385387489,-0.13525102777615775,-0.008050870233231838,36.26295223765801,-0.009022690633590671,0.00184783512337561,-0.0012152985021486973
3.805,449.49412730837236,-0.05307357898064764,-0.09430979006414703,36.26028067820379,-0.008514697624297565,0.00025214429732941135,-0.0018089599688713607
3.81,449.25906807062154,-0.12780321849694953,-0.007636274243178689,36.2510312776677,-0.009689735047484362,-0.0001964262357735544,0.0006024180499524651
3.815,449.68228216862997,-0.0032252834596648502,0.06939369645372359,36.10183128349445,-0.00842245802440204,0.0012909063543069471,-0.00011713715127941844
3.8200000000000003,450.455640114363,-0.008019259260193954,-0.018575637864198597,36.040337754102495,-0.006572579444825609,0.0008488377746797533,-0.0005010966542770911
3.825,451.8442066491737,-0.007102235043034626,-0.026699462708668416,36.020153162927386,-0.008129750950026016,-0.0005322067431531586,0.0011913247130841277
3.83,453.70664816397414,0.02378037220550767,-0.11238804685462772,36.02211637139065,-0.008894447463641594,0.001687801675769231,-0.0011508515893541888
3.835,455.5198928332771,-0.04498136572596605,0.04462172528335248,35.89586093911114,-0.008030482548886525,0.0016092709724165669,-0.000913887799962867
3.84,455.8562426033352,0.008956234516515959,-0.03305187833476642,35.88621015715528,-0.008390640016950768,0.0006029924922116894,0.0007549579978632031
3.845,457.3123797001657,-0.036783729957887715,-0.11413193653548517,35.75382514097731,-0.007959327465822789,0.0007701535515330677,0.0005392567423131461
3.85,458.30715131215544,-0.1066010066776868,0.07110003408159714,35.867162509710795,-0.009177281601757223,-0.0003454483197988168,0.0006986720608307484
3.855,459.5713207673767,0.055663667846853254,0.09284995846269518,35.69264177978183,-0.008871185535606976,-0.0002561302423090242,0.0008627375985952975
3.86,460.04459020133606,-0.03223248338484725,0.05577427192920004,35.59453029461376,-0.009101598721822375,0.00030519394174522726,-0.00023823585455371913
3.865,461.59635926691635,0.029917131517880134,-0.10994942760412008,35.59145802063508,-0.008768456885367664,-2.0515528635571924e-06,-0.0002765424271592405
3.87,462.03639948971045,0.0569267788072601,-0.040766726696394154,35.44257271365887,-0.009943545803488217,0.00040401945970231244,-0.0009378012782942253
3.875,464.047494350799,-0.09309915328541374,0.09292827973747193,35.49605803933137,-0.009447105949315778,-0.001940873149026527,0.00042738853345913907
3.88,465.3914624084805,0.0548184426862767,-0.0038398383129330943,35.42428086113973,-0.008342398743962655,-0.002008065245999648,0.00041088314970118105
3.8850000000000002,467.0170486298109,-0.046033464617549424,-0.03921227446031553,35.34536314502558,-0.0062089585241197846,-0.0008549467195352054,-0.001646635081860595
3.89,466.4233801006198,-0.08153577645097274,0.09848141937922507,35.310943433578466,-0.009825829038607028,-0.00012904730966499745,-0.0007784137009909243
3.895,467.3324736836874,-0.07430819645750109,0.03186894784445239,35.203593285529024,-0.01138828178294208,-0.001770908400022643,4.365577025724626e-05
3.9,468.68779530528906,-0.07483805612810909,0.04161039302721615,35.270330845178755,-0.009417168072287303,-0.00037594497165970985,-0.00014114296013973562
3.9050000000000002,469.960292076175,-0.02459176642501136,0.00819113946014045,35.136290130008966,-0.00611680066427231,-0.0013416028175773438,0.0007670809349978678
3.91,471.1436627083771,-0.15640146337247357,0.012710990152289717,35.133519951438835,-0.005859189904782783,0.0003777879128015562,0.0007148167431162687
3.915,472.9589285359082,-0.058701650692062554,-0.014619308142769068,35.13154978200902,-0.007418899731076889,0.0006858577329501717,5.896403395955684e-05
3.92,472.68712392875113,-0.007839950564217641,0.02519454410360688,35.06578135080762,-0.007028598935370111,-0.0007443600660689387,-0.0014416370848569135
3.9250000000000003,474.7596393962873,0.08655417221313008,0.0969137939423204,35.09743651289076,-0.006802469423316051,-0.0011352536973278878,-0.00023967542546564344
